time,strain,stress,temperature,type,strain_rate,max_strain,title,youngs,poissons
-0.0,8e-05,-3.34,950,fatigue,0.001,0.00506,315-1,144000,0.3
0.06,0.00013,4.08,,,,,,,
0.12,0.00018,11.29,,,,,,,
0.17,0.00023,17.93,,,,,,,
0.22,0.00027,22.85,,,,,,,
0.23,0.00028,23.97,,,,,,,
0.32,0.00033,31.56,,,,,,,
0.41,0.00038,39.14,,,,,,,
0.49,0.00043,48.09,,,,,,,
0.54,0.00048,55.73,,,,,,,
0.59,0.00053,63.15,,,,,,,
0.63,0.00058,69.32,,,,,,,
0.68,0.00063,75.89,,,,,,,
0.72,0.00067,81.31,,,,,,,
0.73,0.00068,82.85,,,,,,,
0.79,0.00073,89.49,,,,,,,
0.85,0.00078,96.0,,,,,,,
0.91,0.00083,103.3,,,,,,,
0.99,0.00088,111.06,,,,,,,
1.05,0.00094,118.52,,,,,,,
1.1,0.00099,125.19,,,,,,,
1.15,0.00104,131.77,,,,,,,
1.21,0.00109,138.39,,,,,,,
1.22,0.0011,139.71,,,,,,,
1.26,0.00114,145.31,,,,,,,
1.31,0.00119,152.3,,,,,,,
1.35,0.00124,158.87,,,,,,,
1.38,0.00129,164.35,,,,,,,
1.4,0.00135,164.77,,,,,,,
1.41,0.0014,165.14,,,,,,,
1.41,0.00146,165.61,,,,,,,
1.42,0.00152,166.09,,,,,,,
1.43,0.00157,166.4,,,,,,,
1.43,0.00163,166.68,,,,,,,
1.44,0.00168,166.97,,,,,,,
1.45,0.00173,167.25,,,,,,,
1.46,0.00178,167.35,,,,,,,
1.47,0.00183,167.09,,,,,,,
1.63,0.00178,145.79,,,,,,,
1.72,0.00176,144.01,,,,,,,
1.82,0.00183,153.73,,,,,,,
1.87,0.00188,159.34,,,,,,,
1.91,0.00193,164.9,,,,,,,
1.95,0.00198,169.97,,,,,,,
2.0,0.00203,174.71,,,,,,,
2.03,0.00209,168.76,,,,,,,
2.04,0.00214,169.13,,,,,,,
2.04,0.00219,169.45,,,,,,,
2.04,0.00225,169.9,,,,,,,
2.05,0.00231,170.1,,,,,,,
2.05,0.00237,170.54,,,,,,,
2.05,0.00243,170.72,,,,,,,
2.06,0.00249,171.07,,,,,,,
2.06,0.00254,171.33,,,,,,,
2.07,0.00259,171.5,,,,,,,
2.07,0.00264,171.56,,,,,,,
2.18,0.00259,147.49,,,,,,,
2.21,0.00254,140.13,,,,,,,
2.22,0.00253,138.55,,,,,,,
2.24,0.00249,133.61,,,,,,,
2.29,0.00244,127.78,,,,,,,
2.46,0.00249,136.96,,,,,,,
2.51,0.00254,143.53,,,,,,,
2.55,0.00259,149.31,,,,,,,
2.59,0.00264,154.81,,,,,,,
2.63,0.00269,159.87,,,,,,,
2.67,0.00274,164.69,,,,,,,
2.72,0.00279,169.12,,,,,,,
2.77,0.00284,173.36,,,,,,,
2.82,0.00289,177.16,,,,,,,
2.84,0.00295,173.13,,,,,,,
2.85,0.00301,173.58,,,,,,,
2.85,0.00306,173.76,,,,,,,
2.86,0.00311,173.99,,,,,,,
2.86,0.00317,174.23,,,,,,,
2.86,0.00322,174.36,,,,,,,
2.87,0.00328,174.67,,,,,,,
2.87,0.00333,174.84,,,,,,,
2.87,0.00338,174.92,,,,,,,
2.88,0.00344,174.94,,,,,,,
3.0,0.00339,147.95,,,,,,,
3.03,0.00334,140.45,,,,,,,
3.07,0.00329,133.62,,,,,,,
3.22,0.00327,132.11,,,,,,,
3.29,0.00334,140.55,,,,,,,
3.33,0.00339,146.11,,,,,,,
3.37,0.00344,151.3,,,,,,,
3.41,0.00349,156.15,,,,,,,
3.45,0.00354,160.5,,,,,,,
3.5,0.00359,164.53,,,,,,,
3.54,0.00364,168.21,,,,,,,
3.58,0.00369,171.37,,,,,,,
3.63,0.00374,174.3,,,,,,,
3.68,0.00379,176.75,,,,,,,
3.72,0.00383,178.64,,,,,,,
3.73,0.00384,179.05,,,,,,,
3.77,0.00389,181.0,,,,,,,
3.82,0.00394,175.33,,,,,,,
3.83,0.004,175.61,,,,,,,
3.83,0.00405,175.87,,,,,,,
3.84,0.00411,176.04,,,,,,,
3.84,0.00417,176.21,,,,,,,
3.85,0.00422,176.36,,,,,,,
3.86,0.00427,176.28,,,,,,,
4.22,0.00429,149.82,,,,,,,
4.27,0.00433,151.03,,,,,,,
4.47,0.00427,128.86,,,,,,,
4.52,0.00422,120.1,,,,,,,
4.57,0.00417,112.14,,,,,,,
4.61,0.00412,104.4,,,,,,,
4.66,0.00407,96.96,,,,,,,
4.71,0.00402,89.49,,,,,,,
4.72,0.00401,88.36,,,,,,,
4.76,0.00397,82.18,,,,,,,
4.82,0.00392,74.83,,,,,,,
4.87,0.00387,67.34,,,,,,,
4.93,0.00382,60.08,,,,,,,
4.99,0.00377,52.65,,,,,,,
5.04,0.00372,45.61,,,,,,,
5.1,0.00367,38.38,,,,,,,
5.15,0.00362,31.35,,,,,,,
5.2,0.00357,24.46,,,,,,,
5.22,0.00356,22.97,,,,,,,
5.26,0.00352,17.65,,,,,,,
5.31,0.00347,11.52,,,,,,,
5.36,0.00342,5.39,,,,,,,
5.41,0.00337,-0.94,,,,,,,
5.47,0.00332,-7.0,,,,,,,
5.52,0.00326,-13.21,,,,,,,
5.58,0.00321,-19.56,,,,,,,
5.63,0.00316,-25.58,,,,,,,
5.69,0.00311,-30.14,,,,,,,
5.72,0.0031,-31.3,,,,,,,
5.8,0.00306,-34.94,,,,,,,
5.89,0.00301,-41.51,,,,,,,
5.95,0.00296,-47.79,,,,,,,
6.0,0.00291,-54.11,,,,,,,
6.04,0.00286,-60.89,,,,,,,
6.08,0.00281,-66.46,,,,,,,
6.12,0.00276,-71.78,,,,,,,
6.16,0.00271,-76.81,,,,,,,
6.21,0.00266,-81.56,,,,,,,
6.22,0.00265,-82.08,,,,,,,
6.27,0.00261,-86.01,,,,,,,
6.33,0.00256,-90.48,,,,,,,
6.39,0.00251,-94.99,,,,,,,
6.44,0.00246,-99.5,,,,,,,
6.5,0.00241,-104.3,,,,,,,
6.55,0.00236,-109.8,,,,,,,
6.59,0.00231,-115.4,,,,,,,
6.63,0.00226,-120.8,,,,,,,
6.67,0.0022,-126.1,,,,,,,
6.7,0.00215,-131.1,,,,,,,
6.72,0.00213,-133.6,,,,,,,
6.73,0.0021,-135.8,,,,,,,
6.77,0.00205,-140.3,,,,,,,
6.8,0.002,-144.4,,,,,,,
6.83,0.00195,-148.2,,,,,,,
6.87,0.0019,-151.8,,,,,,,
6.9,0.00185,-155.0,,,,,,,
6.94,0.0018,-157.8,,,,,,,
6.98,0.00175,-159.7,,,,,,,
7.01,0.0017,-161.0,,,,,,,
7.04,0.00165,-161.3,,,,,,,
7.05,0.0016,-162.1,,,,,,,
7.07,0.00154,-162.6,,,,,,,
7.11,0.00149,-162.7,,,,,,,
7.18,0.00144,-160.7,,,,,,,
7.22,0.00142,-159.5,,,,,,,
7.26,0.00139,-158.6,,,,,,,
7.34,0.00134,-158.3,,,,,,,
7.4,0.00129,-159.5,,,,,,,
7.46,0.00124,-161.2,,,,,,,
7.51,0.00119,-163.2,,,,,,,
7.55,0.00114,-164.9,,,,,,,
7.6,0.00109,-166.5,,,,,,,
7.64,0.00104,-168.0,,,,,,,
7.69,0.00099,-169.1,,,,,,,
7.72,0.00096,-169.8,,,,,,,
7.73,0.00094,-170.1,,,,,,,
7.78,0.00089,-170.9,,,,,,,
7.82,0.00084,-171.4,,,,,,,
7.87,0.00079,-171.8,,,,,,,
7.92,0.00073,-171.9,,,,,,,
7.97,0.00068,-172.0,,,,,,,
8.02,0.00063,-172.1,,,,,,,
8.07,0.00058,-172.1,,,,,,,
8.12,0.00053,-172.2,,,,,,,
8.17,0.00048,-172.4,,,,,,,
8.22,0.00043,-172.5,,,,,,,
8.22,0.00043,-172.5,,,,,,,
8.27,0.00038,-172.6,,,,,,,
8.31,0.00033,-172.7,,,,,,,
8.36,0.00028,-172.6,,,,,,,
8.41,0.00023,-172.4,,,,,,,
8.46,0.00018,-172.1,,,,,,,
8.51,0.00013,-171.7,,,,,,,
8.56,8e-05,-171.2,,,,,,,
8.61,3e-05,-170.7,,,,,,,
8.66,-2e-05,-170.2,,,,,,,
8.71,-7e-05,-169.7,,,,,,,
8.72,-8e-05,-169.7,,,,,,,
8.77,-0.00012,-169.4,,,,,,,
8.82,-0.00018,-169.3,,,,,,,
8.88,-0.00023,-169.4,,,,,,,
8.93,-0.00028,-169.7,,,,,,,
8.97,-0.00033,-169.9,,,,,,,
9.02,-0.00038,-170.2,,,,,,,
9.06,-0.00043,-170.3,,,,,,,
9.11,-0.00048,-170.2,,,,,,,
9.16,-0.00053,-170.0,,,,,,,
9.2,-0.00058,-169.6,,,,,,,
9.22,-0.00059,-169.5,,,,,,,
9.25,-0.00063,-169.2,,,,,,,
9.3,-0.00068,-168.8,,,,,,,
9.36,-0.00073,-168.3,,,,,,,
9.41,-0.00078,-168.0,,,,,,,
9.46,-0.00083,-167.8,,,,,,,
9.51,-0.00088,-167.5,,,,,,,
9.56,-0.00093,-167.3,,,,,,,
9.61,-0.00098,-167.2,,,,,,,
9.66,-0.00103,-167.2,,,,,,,
9.71,-0.00108,-167.1,,,,,,,
9.72,-0.00109,-167.0,,,,,,,
9.75,-0.00113,-166.9,,,,,,,
9.8,-0.00118,-166.6,,,,,,,
9.85,-0.00123,-166.2,,,,,,,
9.9,-0.00128,-165.8,,,,,,,
9.95,-0.00133,-165.3,,,,,,,
10.01,-0.00138,-164.8,,,,,,,
10.06,-0.00143,-164.6,,,,,,,
10.11,-0.00148,-164.6,,,,,,,
10.16,-0.00154,-164.6,,,,,,,
10.21,-0.00159,-164.6,,,,,,,
10.22,-0.00159,-164.6,,,,,,,
10.27,-0.00164,-164.6,,,,,,,
10.32,-0.00169,-164.7,,,,,,,
10.38,-0.00174,-164.9,,,,,,,
10.43,-0.00179,-165.3,,,,,,,
10.48,-0.00184,-165.7,,,,,,,
10.52,-0.00189,-166.1,,,,,,,
10.57,-0.00194,-166.3,,,,,,,
10.62,-0.00199,-166.4,,,,,,,
10.66,-0.00204,-166.5,,,,,,,
10.71,-0.00209,-166.3,,,,,,,
10.72,-0.00209,-166.3,,,,,,,
10.77,-0.00214,-166.2,,,,,,,
10.82,-0.00219,-166.2,,,,,,,
10.87,-0.00224,-166.1,,,,,,,
10.91,-0.00229,-166.0,,,,,,,
10.96,-0.00234,-165.8,,,,,,,
11.01,-0.00239,-165.4,,,,,,,
11.06,-0.00244,-165.0,,,,,,,
11.12,-0.00249,-164.7,,,,,,,
11.16,-0.00254,-164.6,,,,,,,
11.21,-0.00259,-164.4,,,,,,,
11.22,-0.0026,-164.4,,,,,,,
11.26,-0.00264,-164.1,,,,,,,
11.31,-0.00269,-163.8,,,,,,,
11.36,-0.00275,-163.7,,,,,,,
11.41,-0.0028,-163.5,,,,,,,
11.46,-0.00285,-163.3,,,,,,,
11.51,-0.0029,-163.1,,,,,,,
11.56,-0.00295,-162.8,,,,,,,
11.61,-0.003,-162.6,,,,,,,
11.66,-0.00305,-162.4,,,,,,,
11.71,-0.0031,-162.3,,,,,,,
11.72,-0.0031,-162.2,,,,,,,
11.76,-0.00315,-162.2,,,,,,,
11.82,-0.0032,-162.1,,,,,,,
11.87,-0.00325,-162.1,,,,,,,
11.92,-0.0033,-162.2,,,,,,,
11.97,-0.00335,-162.2,,,,,,,
12.03,-0.0034,-162.3,,,,,,,
12.08,-0.00345,-162.5,,,,,,,
12.13,-0.0035,-162.8,,,,,,,
12.17,-0.00355,-163.0,,,,,,,
12.22,-0.0036,-163.1,,,,,,,
12.22,-0.0036,-163.1,,,,,,,
12.27,-0.00365,-163.2,,,,,,,
12.32,-0.0037,-163.2,,,,,,,
12.38,-0.00376,-163.2,,,,,,,
12.43,-0.00381,-163.3,,,,,,,
12.48,-0.00386,-163.5,,,,,,,
12.53,-0.00391,-163.7,,,,,,,
12.58,-0.00396,-163.9,,,,,,,
12.62,-0.00401,-164.0,,,,,,,
12.67,-0.00406,-164.1,,,,,,,
12.72,-0.0041,-164.1,,,,,,,
12.72,-0.00411,-164.2,,,,,,,
12.77,-0.00416,-164.0,,,,,,,
12.82,-0.00421,-163.8,,,,,,,
12.88,-0.00426,-163.7,,,,,,,
12.92,-0.00431,-163.7,,,,,,,
12.97,-0.00436,-163.7,,,,,,,
13.02,-0.00441,-163.2,,,,,,,
13.09,-0.00446,-158.5,,,,,,,
13.21,-0.00441,-135.4,,,,,,,
13.22,-0.00441,-134.2,,,,,,,
13.25,-0.00436,-124.8,,,,,,,
13.29,-0.00431,-116.2,,,,,,,
13.33,-0.00426,-107.9,,,,,,,
13.37,-0.00421,-99.53,,,,,,,
13.4,-0.00416,-92.3,,,,,,,
13.44,-0.00411,-85.69,,,,,,,
13.48,-0.00406,-78.99,,,,,,,
13.53,-0.00401,-72.37,,,,,,,
13.58,-0.00396,-65.67,,,,,,,
13.64,-0.00391,-58.37,,,,,,,
13.7,-0.00386,-51.57,,,,,,,
13.72,-0.00384,-49.53,,,,,,,
13.75,-0.00381,-45.08,,,,,,,
13.81,-0.00376,-38.73,,,,,,,
13.86,-0.0037,-32.74,,,,,,,
13.91,-0.00365,-26.93,,,,,,,
13.96,-0.0036,-20.75,,,,,,,
14.01,-0.00355,-15.33,,,,,,,
14.06,-0.0035,-10.04,,,,,,,
14.11,-0.00345,-4.58,,,,,,,
14.16,-0.0034,1.1,,,,,,,
14.22,-0.00335,6.29,,,,,,,
14.22,-0.00335,6.39,,,,,,,
14.27,-0.0033,12.0,,,,,,,
14.33,-0.00325,17.74,,,,,,,
14.39,-0.0032,23.73,,,,,,,
14.45,-0.00315,29.54,,,,,,,
14.51,-0.0031,34.27,,,,,,,
14.58,-0.00305,39.39,,,,,,,
14.66,-0.003,45.06,,,,,,,
14.72,-0.00295,50.57,,,,,,,
14.72,-0.00295,50.68,,,,,,,
14.77,-0.0029,56.37,,,,,,,
14.82,-0.00285,62.43,,,,,,,
14.86,-0.0028,67.86,,,,,,,
14.9,-0.00275,72.79,,,,,,,
14.94,-0.0027,77.38,,,,,,,
14.99,-0.00264,81.87,,,,,,,
15.04,-0.00259,85.63,,,,,,,
15.09,-0.00254,89.21,,,,,,,
15.15,-0.00249,92.93,,,,,,,
15.2,-0.00244,96.32,,,,,,,
15.22,-0.00243,97.04,,,,,,,
15.26,-0.00239,99.75,,,,,,,
15.32,-0.00234,103.47,,,,,,,
15.37,-0.00229,106.89,,,,,,,
15.42,-0.00224,110.18,,,,,,,
15.47,-0.00219,113.47,,,,,,,
15.52,-0.00214,116.64,,,,,,,
15.57,-0.00209,119.62,,,,,,,
15.62,-0.00204,122.99,,,,,,,
15.67,-0.00199,126.71,,,,,,,
15.71,-0.00194,130.48,,,,,,,
15.72,-0.00192,131.47,,,,,,,
15.74,-0.00189,134.08,,,,,,,
15.78,-0.00184,137.23,,,,,,,
15.81,-0.00178,140.26,,,,,,,
15.84,-0.00173,142.98,,,,,,,
15.87,-0.00168,145.19,,,,,,,
15.91,-0.00163,147.11,,,,,,,
15.94,-0.00158,148.63,,,,,,,
15.98,-0.00153,149.91,,,,,,,
16.01,-0.00148,150.82,,,,,,,
16.05,-0.00143,151.33,,,,,,,
16.09,-0.00138,151.42,,,,,,,
16.13,-0.00133,151.23,,,,,,,
16.18,-0.00128,150.62,,,,,,,
16.22,-0.00124,149.99,,,,,,,
16.23,-0.00123,149.8,,,,,,,
16.28,-0.00118,149.05,,,,,,,
16.33,-0.00113,148.5,,,,,,,
16.39,-0.00108,148.12,,,,,,,
16.44,-0.00103,147.99,,,,,,,
16.49,-0.00098,148.06,,,,,,,
16.54,-0.00093,148.21,,,,,,,
16.59,-0.00087,148.51,,,,,,,
16.64,-0.00082,148.76,,,,,,,
16.69,-0.00077,149.07,,,,,,,
16.72,-0.00074,149.31,,,,,,,
16.74,-0.00072,149.41,,,,,,,
16.79,-0.00067,149.66,,,,,,,
16.83,-0.00062,149.83,,,,,,,
16.88,-0.00057,149.9,,,,,,,
16.93,-0.00052,149.94,,,,,,,
16.98,-0.00047,149.96,,,,,,,
17.03,-0.00042,149.87,,,,,,,
17.08,-0.00037,149.91,,,,,,,
17.13,-0.00032,149.99,,,,,,,
17.18,-0.00027,150.05,,,,,,,
17.22,-0.00023,150.1,,,,,,,
17.23,-0.00022,150.11,,,,,,,
17.28,-0.00017,150.15,,,,,,,
17.33,-0.00012,150.19,,,,,,,
17.38,-7e-05,150.24,,,,,,,
17.43,-2e-05,150.28,,,,,,,
17.49,3e-05,150.28,,,,,,,
17.54,9e-05,150.38,,,,,,,
17.6,0.00014,150.75,,,,,,,
17.65,0.00019,151.17,,,,,,,
17.7,0.00024,151.67,,,,,,,
17.72,0.00025,151.85,,,,,,,
17.75,0.00029,152.12,,,,,,,
17.79,0.00034,152.57,,,,,,,
17.84,0.00039,152.92,,,,,,,
17.89,0.00044,153.11,,,,,,,
17.93,0.00049,153.13,,,,,,,
17.98,0.00054,152.97,,,,,,,
18.04,0.00059,152.69,,,,,,,
18.09,0.00064,152.43,,,,,,,
18.14,0.00069,152.41,,,,,,,
18.19,0.00074,152.46,,,,,,,
18.22,0.00076,152.49,,,,,,,
18.25,0.00079,152.51,,,,,,,
18.3,0.00084,152.6,,,,,,,
18.35,0.00089,152.68,,,,,,,
18.4,0.00094,152.82,,,,,,,
18.45,0.00099,152.99,,,,,,,
18.5,0.00105,153.2,,,,,,,
18.55,0.0011,153.33,,,,,,,
18.6,0.00115,153.6,,,,,,,
18.65,0.0012,153.77,,,,,,,
18.69,0.00125,153.92,,,,,,,
18.72,0.00127,153.93,,,,,,,
18.74,0.0013,153.89,,,,,,,
18.79,0.00135,153.83,,,,,,,
18.84,0.0014,153.61,,,,,,,
18.89,0.00145,153.39,,,,,,,
18.94,0.0015,153.1,,,,,,,
19.0,0.00155,152.98,,,,,,,
19.05,0.0016,153.03,,,,,,,
19.1,0.00165,153.2,,,,,,,
19.15,0.0017,153.45,,,,,,,
19.2,0.00175,153.73,,,,,,,
19.22,0.00177,153.82,,,,,,,
19.25,0.0018,153.97,,,,,,,
19.3,0.00185,154.26,,,,,,,
19.35,0.0019,154.49,,,,,,,
19.4,0.00195,154.74,,,,,,,
19.45,0.002,154.85,,,,,,,
19.5,0.00205,155.04,,,,,,,
19.55,0.00211,155.11,,,,,,,
19.6,0.00216,155.15,,,,,,,
19.65,0.00221,155.16,,,,,,,
19.7,0.00226,155.12,,,,,,,
19.72,0.00228,155.11,,,,,,,
19.75,0.00231,155.1,,,,,,,
19.8,0.00236,155.08,,,,,,,
19.85,0.00241,155.11,,,,,,,
19.9,0.00246,155.14,,,,,,,
19.95,0.00251,155.1,,,,,,,
20.0,0.00256,155.14,,,,,,,
20.05,0.00261,155.13,,,,,,,
20.1,0.00266,155.15,,,,,,,
20.14,0.00271,155.12,,,,,,,
20.19,0.00276,154.98,,,,,,,
20.22,0.00278,154.84,,,,,,,
20.25,0.00281,154.7,,,,,,,
20.3,0.00286,154.48,,,,,,,
20.35,0.00291,154.43,,,,,,,
20.4,0.00296,154.41,,,,,,,
20.45,0.00302,154.42,,,,,,,
20.5,0.00307,154.47,,,,,,,
20.55,0.00312,154.58,,,,,,,
20.6,0.00317,154.66,,,,,,,
20.65,0.00322,154.72,,,,,,,
20.71,0.00327,154.75,,,,,,,
20.72,0.00328,154.76,,,,,,,
20.76,0.00332,154.93,,,,,,,
20.81,0.00337,155.17,,,,,,,
20.86,0.00342,155.4,,,,,,,
20.91,0.00347,155.56,,,,,,,
20.95,0.00352,155.68,,,,,,,
21.0,0.00357,155.72,,,,,,,
21.05,0.00362,155.68,,,,,,,
21.1,0.00367,155.64,,,,,,,
21.15,0.00372,155.6,,,,,,,
21.2,0.00377,155.53,,,,,,,
21.22,0.00379,155.49,,,,,,,
21.25,0.00382,155.43,,,,,,,
21.31,0.00387,155.38,,,,,,,
21.36,0.00392,155.41,,,,,,,
21.41,0.00397,155.58,,,,,,,
21.47,0.00402,155.9,,,,,,,
21.52,0.00407,156.31,,,,,,,
21.57,0.00413,156.78,,,,,,,
21.61,0.00418,157.15,,,,,,,
21.66,0.00423,157.42,,,,,,,
21.71,0.00428,157.7,,,,,,,
21.72,0.00428,157.68,,,,,,,
21.76,0.00433,157.69,,,,,,,
21.81,0.00438,157.76,,,,,,,
21.86,0.00443,157.81,,,,,,,
21.91,0.00448,157.76,,,,,,,
21.96,0.00453,157.82,,,,,,,
22.01,0.00458,157.8,,,,,,,
22.07,0.00463,155.37,,,,,,,
22.22,0.00459,131.06,,,,,,,
22.23,0.00458,128.19,,,,,,,
22.27,0.00453,118.26,,,,,,,
22.31,0.00448,109.88,,,,,,,
22.35,0.00443,102.13,,,,,,,
22.39,0.00438,94.85,,,,,,,
22.43,0.00433,87.71,,,,,,,
22.47,0.00427,80.68,,,,,,,
22.52,0.00422,74.09,,,,,,,
22.56,0.00417,67.56,,,,,,,
22.62,0.00412,60.85,,,,,,,
22.67,0.00407,54.61,,,,,,,
22.72,0.00403,49.06,,,,,,,
22.73,0.00402,47.82,,,,,,,
22.78,0.00397,41.21,,,,,,,
22.83,0.00392,35.35,,,,,,,
22.89,0.00387,29.06,,,,,,,
22.94,0.00382,23.21,,,,,,,
23.0,0.00377,17.33,,,,,,,
23.05,0.00372,10.95,,,,,,,
23.11,0.00367,5.3,,,,,,,
23.16,0.00362,-0.79,,,,,,,
23.21,0.00357,-5.93,,,,,,,
23.22,0.00356,-6.72,,,,,,,
23.26,0.00352,-10.93,,,,,,,
23.31,0.00347,-16.07,,,,,,,
23.36,0.00342,-20.92,,,,,,,
23.42,0.00337,-25.45,,,,,,,
23.5,0.00332,-29.0,,,,,,,
23.61,0.00326,-33.35,,,,,,,
23.7,0.00321,-39.51,,,,,,,
23.72,0.0032,-41.45,,,,,,,
23.76,0.00316,-45.86,,,,,,,
23.8,0.00311,-52.49,,,,,,,
23.83,0.00306,-58.12,,,,,,,
23.87,0.00301,-62.92,,,,,,,
23.91,0.00296,-67.53,,,,,,,
23.95,0.00291,-71.96,,,,,,,
23.99,0.00286,-75.49,,,,,,,
24.04,0.00281,-78.73,,,,,,,
24.09,0.00276,-81.74,,,,,,,
24.14,0.00271,-84.48,,,,,,,
24.2,0.00266,-87.54,,,,,,,
24.22,0.00265,-88.16,,,,,,,
24.27,0.00261,-91.2,,,,,,,
24.32,0.00256,-94.85,,,,,,,
24.37,0.00251,-98.96,,,,,,,
24.42,0.00246,-103.7,,,,,,,
24.46,0.00241,-108.6,,,,,,,
24.5,0.00236,-113.2,,,,,,,
24.53,0.00231,-117.4,,,,,,,
24.56,0.00225,-121.2,,,,,,,
24.59,0.0022,-124.9,,,,,,,
24.63,0.00215,-128.2,,,,,,,
24.66,0.0021,-131.1,,,,,,,
24.7,0.00205,-133.9,,,,,,,
24.72,0.00202,-135.3,,,,,,,
24.73,0.002,-136.1,,,,,,,
24.77,0.00195,-138.0,,,,,,,
24.8,0.0019,-139.6,,,,,,,
24.84,0.00185,-140.8,,,,,,,
24.88,0.0018,-141.6,,,,,,,
24.92,0.00175,-141.8,,,,,,,
24.97,0.0017,-141.9,,,,,,,
25.02,0.00165,-141.9,,,,,,,
25.07,0.0016,-141.9,,,,,,,
25.13,0.00155,-141.9,,,,,,,
25.19,0.0015,-142.3,,,,,,,
25.22,0.00147,-142.6,,,,,,,
25.24,0.00145,-143.0,,,,,,,
25.29,0.0014,-143.8,,,,,,,
25.34,0.00134,-144.7,,,,,,,
25.39,0.00129,-145.6,,,,,,,
25.44,0.00124,-146.4,,,,,,,
25.49,0.00119,-147.2,,,,,,,
25.54,0.00114,-148.0,,,,,,,
25.58,0.00109,-148.6,,,,,,,
25.63,0.00104,-149.1,,,,,,,
25.68,0.00099,-149.4,,,,,,,
25.72,0.00095,-149.7,,,,,,,
25.73,0.00094,-149.7,,,,,,,
25.78,0.00089,-150.1,,,,,,,
25.82,0.00084,-150.4,,,,,,,
25.87,0.00079,-150.6,,,,,,,
25.92,0.00074,-150.7,,,,,,,
25.97,0.00069,-150.8,,,,,,,
26.02,0.00064,-150.8,,,,,,,
26.07,0.00059,-150.9,,,,,,,
26.12,0.00054,-151.0,,,,,,,
26.17,0.00049,-151.1,,,,,,,
26.22,0.00045,-151.3,,,,,,,
26.23,0.00044,-151.3,,,,,,,
26.28,0.00039,-151.6,,,,,,,
26.33,0.00034,-151.9,,,,,,,
26.38,0.00029,-152.2,,,,,,,
26.43,0.00023,-152.5,,,,,,,
26.48,0.00018,-152.8,,,,,,,
26.53,0.00013,-153.1,,,,,,,
26.58,8e-05,-153.3,,,,,,,
26.62,3e-05,-153.6,,,,,,,
26.67,-2e-05,-153.8,,,,,,,
26.72,-6e-05,-154.0,,,,,,,
26.72,-7e-05,-154.0,,,,,,,
26.77,-0.00012,-154.2,,,,,,,
26.82,-0.00017,-154.4,,,,,,,
26.87,-0.00022,-154.5,,,,,,,
26.92,-0.00027,-154.6,,,,,,,
26.98,-0.00032,-154.8,,,,,,,
27.03,-0.00037,-155.1,,,,,,,
27.08,-0.00042,-155.4,,,,,,,
27.12,-0.00047,-155.6,,,,,,,
27.17,-0.00052,-155.8,,,,,,,
27.22,-0.00057,-156.0,,,,,,,
27.22,-0.00057,-156.0,,,,,,,
27.27,-0.00062,-156.1,,,,,,,
27.32,-0.00067,-156.2,,,,,,,
27.37,-0.00072,-156.2,,,,,,,
27.41,-0.00077,-156.2,,,,,,,
27.46,-0.00082,-156.0,,,,,,,
27.52,-0.00087,-155.9,,,,,,,
27.57,-0.00092,-155.8,,,,,,,
27.62,-0.00097,-155.9,,,,,,,
27.67,-0.00102,-155.9,,,,,,,
27.72,-0.00107,-156.0,,,,,,,
27.72,-0.00107,-156.0,,,,,,,
27.77,-0.00112,-156.2,,,,,,,
27.82,-0.00118,-156.3,,,,,,,
27.87,-0.00123,-156.4,,,,,,,
27.92,-0.00128,-156.5,,,,,,,
27.96,-0.00133,-156.4,,,,,,,
28.01,-0.00138,-156.3,,,,,,,
28.06,-0.00143,-156.2,,,,,,,
28.12,-0.00148,-156.0,,,,,,,
28.17,-0.00153,-155.9,,,,,,,
28.21,-0.00158,-155.8,,,,,,,
28.22,-0.00158,-155.8,,,,,,,
28.27,-0.00163,-155.6,,,,,,,
28.32,-0.00168,-155.6,,,,,,,
28.37,-0.00173,-155.6,,,,,,,
28.43,-0.00178,-155.9,,,,,,,
28.49,-0.00183,-156.2,,,,,,,
28.54,-0.00188,-156.8,,,,,,,
28.59,-0.00193,-157.5,,,,,,,
28.64,-0.00198,-158.2,,,,,,,
28.69,-0.00203,-158.9,,,,,,,
28.72,-0.00206,-159.3,,,,,,,
28.74,-0.00208,-159.6,,,,,,,
28.79,-0.00214,-160.2,,,,,,,
28.84,-0.00219,-160.7,,,,,,,
28.88,-0.00224,-161.0,,,,,,,
28.93,-0.00229,-161.3,,,,,,,
28.97,-0.00234,-161.5,,,,,,,
29.02,-0.00239,-161.4,,,,,,,
29.07,-0.00244,-161.2,,,,,,,
29.12,-0.00249,-160.9,,,,,,,
29.17,-0.00254,-160.5,,,,,,,
29.22,-0.00258,-160.2,,,,,,,
29.22,-0.00259,-160.1,,,,,,,
29.27,-0.00264,-159.9,,,,,,,
29.33,-0.00269,-159.7,,,,,,,
29.38,-0.00274,-159.7,,,,,,,
29.43,-0.00279,-159.6,,,,,,,
29.48,-0.00284,-159.7,,,,,,,
29.53,-0.00289,-159.8,,,,,,,
29.58,-0.00294,-159.9,,,,,,,
29.63,-0.00299,-160.0,,,,,,,
29.69,-0.00304,-160.2,,,,,,,
29.72,-0.00307,-160.3,,,,,,,
29.74,-0.0031,-160.4,,,,,,,
29.79,-0.00315,-160.6,,,,,,,
29.83,-0.0032,-160.9,,,,,,,
29.89,-0.00325,-161.0,,,,,,,
29.94,-0.0033,-161.2,,,,,,,
29.99,-0.00335,-161.3,,,,,,,
30.03,-0.0034,-161.3,,,,,,,
30.08,-0.00345,-161.3,,,,,,,
30.13,-0.0035,-161.2,,,,,,,
30.19,-0.00355,-161.0,,,,,,,
30.22,-0.00358,-160.9,,,,,,,
30.24,-0.0036,-161.0,,,,,,,
30.29,-0.00365,-160.9,,,,,,,
30.34,-0.0037,-160.8,,,,,,,
30.39,-0.00375,-160.8,,,,,,,
30.43,-0.0038,-160.8,,,,,,,
30.49,-0.00385,-160.7,,,,,,,
30.54,-0.0039,-160.6,,,,,,,
30.6,-0.00395,-160.7,,,,,,,
30.65,-0.00401,-161.1,,,,,,,
30.7,-0.00406,-161.6,,,,,,,
30.72,-0.00407,-161.8,,,,,,,
30.75,-0.00411,-162.2,,,,,,,
30.79,-0.00416,-162.6,,,,,,,
30.84,-0.00421,-162.8,,,,,,,
30.89,-0.00426,-162.9,,,,,,,
30.94,-0.00431,-162.9,,,,,,,
30.99,-0.00436,-162.7,,,,,,,
31.04,-0.00441,-162.6,,,,,,,
31.09,-0.00446,-162.3,,,,,,,
31.13,-0.00451,-162.1,,,,,,,
31.19,-0.00456,-161.9,,,,,,,
31.22,-0.00459,-161.5,,,,,,,
31.24,-0.00461,-160.9,,,,,,,
31.46,-0.00456,-124.7,,,,,,,
31.5,-0.00451,-116.1,,,,,,,
31.53,-0.00446,-108.1,,,,,,,
31.57,-0.00441,-100.8,,,,,,,
31.6,-0.00436,-93.98,,,,,,,
31.64,-0.00431,-87.51,,,,,,,
31.68,-0.00426,-81.31,,,,,,,
31.72,-0.00422,-76.5,,,,,,,
31.73,-0.00421,-75.14,,,,,,,
31.78,-0.00416,-68.71,,,,,,,
31.84,-0.00411,-62.13,,,,,,,
31.9,-0.00406,-55.21,,,,,,,
31.95,-0.00401,-48.71,,,,,,,
32.01,-0.00396,-42.36,,,,,,,
32.06,-0.00391,-36.02,,,,,,,
32.12,-0.00386,-29.54,,,,,,,
32.17,-0.00381,-22.67,,,,,,,
32.22,-0.00377,-17.74,,,,,,,
32.23,-0.00375,-16.26,,,,,,,
32.28,-0.0037,-10.3,,,,,,,
32.33,-0.00365,-4.39,,,,,,,
32.38,-0.0036,1.36,,,,,,,
32.43,-0.00355,6.8,,,,,,,
32.48,-0.0035,11.98,,,,,,,
32.53,-0.00345,17.21,,,,,,,
32.58,-0.0034,22.27,,,,,,,
32.63,-0.00335,27.05,,,,,,,
32.68,-0.0033,31.53,,,,,,,
32.72,-0.00327,33.65,,,,,,,
32.75,-0.00325,35.3,,,,,,,
32.82,-0.0032,39.43,,,,,,,
32.89,-0.00315,43.88,,,,,,,
32.97,-0.0031,48.44,,,,,,,
33.03,-0.00305,54.14,,,,,,,
33.08,-0.003,59.92,,,,,,,
33.11,-0.00295,65.19,,,,,,,
33.15,-0.00289,69.96,,,,,,,
33.19,-0.00284,74.21,,,,,,,
33.22,-0.00282,76.27,,,,,,,
33.24,-0.00279,78.18,,,,,,,
33.29,-0.00274,81.99,,,,,,,
33.35,-0.00269,85.45,,,,,,,
33.4,-0.00264,88.69,,,,,,,
33.46,-0.00259,92.27,,,,,,,
33.52,-0.00254,95.83,,,,,,,
33.57,-0.00249,99.25,,,,,,,
33.63,-0.00244,102.63,,,,,,,
33.68,-0.00239,106.01,,,,,,,
33.72,-0.00235,108.3,,,,,,,
33.73,-0.00234,109.35,,,,,,,
33.78,-0.00229,112.57,,,,,,,
33.83,-0.00224,115.86,,,,,,,
33.88,-0.00219,119.14,,,,,,,
33.93,-0.00213,122.91,,,,,,,
33.97,-0.00208,126.85,,,,,,,
34.0,-0.00203,130.38,,,,,,,
34.04,-0.00198,133.84,,,,,,,
34.07,-0.00193,136.94,,,,,,,
34.11,-0.00188,139.73,,,,,,,
34.14,-0.00183,142.24,,,,,,,
34.18,-0.00178,144.33,,,,,,,
34.21,-0.00173,146.19,,,,,,,
34.22,-0.00172,146.39,,,,,,,
34.25,-0.00168,147.52,,,,,,,
34.28,-0.00163,148.52,,,,,,,
34.32,-0.00158,149.29,,,,,,,
34.36,-0.00153,149.62,,,,,,,
34.41,-0.00148,149.71,,,,,,,
34.45,-0.00143,149.62,,,,,,,
34.5,-0.00138,149.38,,,,,,,
34.54,-0.00133,148.99,,,,,,,
34.59,-0.00127,148.52,,,,,,,
34.64,-0.00122,147.98,,,,,,,
34.7,-0.00117,147.51,,,,,,,
34.72,-0.00115,147.4,,,,,,,
34.75,-0.00112,147.29,,,,,,,
34.8,-0.00107,147.24,,,,,,,
34.85,-0.00102,147.29,,,,,,,
34.9,-0.00097,147.51,,,,,,,
34.95,-0.00092,147.77,,,,,,,
35.0,-0.00087,148.09,,,,,,,
35.05,-0.00082,148.3,,,,,,,
35.1,-0.00077,148.56,,,,,,,
35.14,-0.00072,148.77,,,,,,,
35.2,-0.00067,148.91,,,,,,,
35.22,-0.00065,148.97,,,,,,,
35.24,-0.00062,148.98,,,,,,,
35.29,-0.00057,148.89,,,,,,,
35.34,-0.00052,148.67,,,,,,,
35.4,-0.00047,148.62,,,,,,,
35.45,-0.00042,148.58,,,,,,,
35.5,-0.00037,148.79,,,,,,,
35.55,-0.00031,149.06,,,,,,,
35.6,-0.00026,149.53,,,,,,,
35.65,-0.00021,149.89,,,,,,,
35.7,-0.00016,150.25,,,,,,,
35.72,-0.00015,150.34,,,,,,,
35.76,-0.00011,150.66,,,,,,,
74.62,-7e-05,150.2,,,,,,,
74.67,-2e-05,150.12,,,,,,,
74.72,2e-05,149.73,,,,,,,
74.73,3e-05,149.64,,,,,,,
74.78,8e-05,148.97,,,,,,,
74.84,0.00014,148.5,,,,,,,
74.9,0.00019,148.32,,,,,,,
74.96,0.00024,148.6,,,,,,,
75.01,0.00029,149.25,,,,,,,
75.06,0.00034,149.95,,,,,,,
75.11,0.00039,150.66,,,,,,,
75.16,0.00044,151.25,,,,,,,
75.21,0.00049,151.89,,,,,,,
75.22,0.00049,151.96,,,,,,,
75.26,0.00054,152.46,,,,,,,
75.3,0.00059,152.94,,,,,,,
75.35,0.00064,153.23,,,,,,,
75.4,0.00069,153.4,,,,,,,
75.44,0.00074,153.48,,,,,,,
75.49,0.00079,153.43,,,,,,,
75.55,0.00084,153.32,,,,,,,
75.6,0.00089,153.25,,,,,,,
75.65,0.00094,153.23,,,,,,,
75.7,0.00099,153.21,,,,,,,
75.72,0.00101,153.23,,,,,,,
75.75,0.00104,153.24,,,,,,,
75.8,0.00109,153.31,,,,,,,
75.85,0.00114,153.4,,,,,,,
75.9,0.0012,153.5,,,,,,,
75.95,0.00125,153.61,,,,,,,
76.0,0.0013,153.67,,,,,,,
76.05,0.00135,153.77,,,,,,,
76.1,0.0014,153.8,,,,,,,
76.15,0.00145,153.77,,,,,,,
76.2,0.0015,153.67,,,,,,,
76.22,0.00152,153.61,,,,,,,
76.24,0.00155,153.51,,,,,,,
76.29,0.0016,153.38,,,,,,,
76.34,0.00165,153.13,,,,,,,
76.38,0.0017,152.62,,,,,,,
76.44,0.00175,152.06,,,,,,,
76.49,0.0018,151.49,,,,,,,
76.55,0.00185,151.07,,,,,,,
76.61,0.0019,151.14,,,,,,,
76.66,0.00195,151.52,,,,,,,
76.71,0.002,151.94,,,,,,,
76.72,0.00201,152.06,,,,,,,
76.76,0.00205,152.45,,,,,,,
76.81,0.0021,152.81,,,,,,,
76.86,0.00215,153.21,,,,,,,
76.91,0.0022,153.57,,,,,,,
76.96,0.00225,153.9,,,,,,,
77.01,0.00231,154.36,,,,,,,
77.07,0.00236,154.79,,,,,,,
77.11,0.00241,155.18,,,,,,,
77.16,0.00246,155.61,,,,,,,
77.21,0.00251,155.96,,,,,,,
77.22,0.00251,155.98,,,,,,,
77.26,0.00256,156.18,,,,,,,
77.31,0.00261,156.36,,,,,,,
77.36,0.00266,156.48,,,,,,,
77.41,0.00271,156.59,,,,,,,
77.46,0.00276,156.62,,,,,,,
77.51,0.00281,156.57,,,,,,,
77.56,0.00286,156.5,,,,,,,
77.61,0.00291,156.51,,,,,,,
77.66,0.00296,156.57,,,,,,,
77.71,0.00301,156.74,,,,,,,
77.72,0.00302,156.74,,,,,,,
77.76,0.00306,156.88,,,,,,,
77.81,0.00311,157.05,,,,,,,
77.86,0.00316,157.2,,,,,,,
77.91,0.00321,157.3,,,,,,,
77.96,0.00326,157.36,,,,,,,
78.01,0.00332,157.49,,,,,,,
78.07,0.00337,157.63,,,,,,,
78.11,0.00342,157.77,,,,,,,
78.16,0.00347,157.94,,,,,,,
78.22,0.00352,157.96,,,,,,,
78.22,0.00352,157.95,,,,,,,
78.26,0.00357,158.11,,,,,,,
78.31,0.00362,158.18,,,,,,,
78.36,0.00367,158.17,,,,,,,
78.41,0.00372,158.16,,,,,,,
78.46,0.00377,158.06,,,,,,,
78.51,0.00382,157.99,,,,,,,
78.56,0.00387,157.95,,,,,,,
78.61,0.00392,157.84,,,,,,,
78.66,0.00397,157.77,,,,,,,
78.71,0.00402,157.62,,,,,,,
78.72,0.00403,157.61,,,,,,,
78.76,0.00407,157.46,,,,,,,
78.81,0.00412,157.35,,,,,,,
78.86,0.00417,157.32,,,,,,,
78.91,0.00422,157.31,,,,,,,
78.96,0.00427,157.39,,,,,,,
79.01,0.00433,157.35,,,,,,,
79.06,0.00438,157.4,,,,,,,
79.11,0.00443,157.41,,,,,,,
79.17,0.00448,157.45,,,,,,,
79.22,0.00453,157.48,,,,,,,
79.27,0.00458,157.57,,,,,,,
79.32,0.00463,157.66,,,,,,,
79.37,0.00468,157.73,,,,,,,
79.42,0.00473,158.01,,,,,,,
79.47,0.00478,158.28,,,,,,,
79.52,0.00483,158.54,,,,,,,
79.57,0.00488,158.77,,,,,,,
79.62,0.00493,158.93,,,,,,,
79.68,0.00498,158.93,,,,,,,
79.72,0.00502,157.64,,,,,,,
79.74,0.00503,156.39,,,,,,,
79.89,0.00498,128.98,,,,,,,
79.93,0.00493,119.7,,,,,,,
79.97,0.00488,111.6,,,,,,,
80.0,0.00483,104.01,,,,,,,
80.04,0.00478,96.53,,,,,,,
80.08,0.00473,89.7,,,,,,,
80.12,0.00468,83.4,,,,,,,
80.16,0.00463,77.33,,,,,,,
80.21,0.00457,71.2,,,,,,,
80.22,0.00457,70.61,,,,,,,
80.27,0.00452,64.45,,,,,,,
80.32,0.00447,58.07,,,,,,,
80.39,0.00442,51.0,,,,,,,
80.44,0.00437,44.91,,,,,,,
80.49,0.00432,39.46,,,,,,,
80.54,0.00427,33.49,,,,,,,
80.6,0.00422,27.34,,,,,,,
80.65,0.00417,21.86,,,,,,,
80.7,0.00412,16.49,,,,,,,
80.72,0.0041,14.57,,,,,,,
80.75,0.00407,11.12,,,,,,,
80.8,0.00402,5.81,,,,,,,
80.86,0.00397,-0.03,,,,,,,
80.92,0.00392,-6.05,,,,,,,
80.98,0.00387,-11.56,,,,,,,
81.03,0.00382,-16.96,,,,,,,
81.08,0.00377,-21.92,,,,,,,
81.13,0.00372,-25.89,,,,,,,
81.2,0.00367,-29.01,,,,,,,
81.22,0.00366,-29.46,,,,,,,
81.3,0.00362,-31.99,,,,,,,
81.39,0.00357,-37.33,,,,,,,
81.45,0.00352,-43.85,,,,,,,
81.49,0.00346,-49.97,,,,,,,
81.53,0.00341,-55.5,,,,,,,
81.57,0.00336,-60.44,,,,,,,
81.61,0.00331,-65.07,,,,,,,
81.66,0.00326,-69.12,,,,,,,
81.71,0.00321,-72.96,,,,,,,
81.72,0.0032,-73.75,,,,,,,
81.75,0.00316,-76.26,,,,,,,
81.81,0.00311,-79.47,,,,,,,
81.87,0.00306,-82.82,,,,,,,
81.93,0.00301,-86.05,,,,,,,
81.98,0.00296,-89.51,,,,,,,
82.03,0.00291,-92.76,,,,,,,
82.08,0.00286,-96.11,,,,,,,
82.13,0.00281,-100.2,,,,,,,
82.17,0.00276,-104.8,,,,,,,
82.21,0.00271,-109.1,,,,,,,
82.22,0.0027,-109.7,,,,,,,
82.25,0.00266,-113.0,,,,,,,
82.28,0.00261,-117.0,,,,,,,
82.31,0.00256,-120.5,,,,,,,
82.35,0.0025,-123.9,,,,,,,
82.38,0.00245,-127.0,,,,,,,
82.41,0.0024,-129.9,,,,,,,
82.45,0.00235,-132.3,,,,,,,
82.48,0.0023,-134.3,,,,,,,
82.52,0.00225,-136.1,,,,,,,
82.56,0.0022,-137.5,,,,,,,
82.6,0.00215,-138.5,,,,,,,
82.65,0.0021,-139.3,,,,,,,
82.69,0.00205,-139.9,,,,,,,
82.72,0.00202,-140.1,,,,,,,
82.74,0.002,-140.3,,,,,,,
82.79,0.00195,-140.6,,,,,,,
82.84,0.0019,-141.0,,,,,,,
82.89,0.00185,-141.3,,,,,,,
82.94,0.0018,-141.7,,,,,,,
82.99,0.00175,-142.0,,,,,,,
83.05,0.00169,-142.5,,,,,,,
83.11,0.00164,-143.2,,,,,,,
83.16,0.00159,-144.0,,,,,,,
83.21,0.00154,-145.1,,,,,,,
83.22,0.00154,-145.3,,,,,,,
83.26,0.00149,-146.1,,,,,,,
83.3,0.00144,-147.0,,,,,,,
83.35,0.00139,-147.8,,,,,,,
83.4,0.00134,-148.5,,,,,,,
83.45,0.00129,-149.2,,,,,,,
83.5,0.00124,-149.7,,,,,,,
83.54,0.00119,-150.0,,,,,,,
83.59,0.00114,-150.5,,,,,,,
83.64,0.00109,-150.8,,,,,,,
83.69,0.00104,-151.2,,,,,,,
83.72,0.00101,-151.3,,,,,,,
83.74,0.00099,-151.5,,,,,,,
83.79,0.00094,-151.7,,,,,,,
83.83,0.00089,-151.9,,,,,,,
83.88,0.00084,-151.9,,,,,,,
83.93,0.00079,-151.8,,,,,,,
83.97,0.00074,-151.6,,,,,,,
84.02,0.00069,-151.4,,,,,,,
84.08,0.00063,-151.0,,,,,,,
84.13,0.00058,-150.7,,,,,,,
84.18,0.00053,-150.5,,,,,,,
84.22,0.0005,-150.4,,,,,,,
84.23,0.00048,-150.3,,,,,,,
84.28,0.00043,-150.4,,,,,,,
84.34,0.00038,-150.5,,,,,,,
84.39,0.00033,-150.7,,,,,,,
84.45,0.00028,-151.2,,,,,,,
84.5,0.00023,-151.7,,,,,,,
84.54,0.00018,-152.2,,,,,,,
84.59,0.00013,-152.6,,,,,,,
84.64,8e-05,-152.9,,,,,,,
84.68,3e-05,-153.2,,,,,,,
84.72,-0.0,-153.3,,,,,,,
84.73,-2e-05,-153.3,,,,,,,
84.78,-7e-05,-153.3,,,,,,,
84.83,-0.00012,-153.3,,,,,,,
84.88,-0.00017,-153.3,,,,,,,
84.93,-0.00022,-153.3,,,,,,,
84.98,-0.00027,-153.2,,,,,,,
85.03,-0.00032,-153.1,,,,,,,
85.09,-0.00037,-153.0,,,,,,,
85.14,-0.00042,-153.0,,,,,,,
85.2,-0.00048,-153.3,,,,,,,
85.22,-0.00049,-153.5,,,,,,,
85.25,-0.00053,-153.8,,,,,,,
85.3,-0.00058,-154.4,,,,,,,
85.35,-0.00063,-155.0,,,,,,,
85.4,-0.00068,-155.4,,,,,,,
85.44,-0.00073,-155.8,,,,,,,
85.5,-0.00078,-156.0,,,,,,,
85.55,-0.00083,-156.4,,,,,,,
85.6,-0.00088,-156.9,,,,,,,
85.65,-0.00093,-157.4,,,,,,,
85.71,-0.00098,-157.9,,,,,,,
85.72,-0.00099,-158.0,,,,,,,
85.76,-0.00103,-158.5,,,,,,,
85.81,-0.00108,-159.1,,,,,,,
85.86,-0.00113,-159.7,,,,,,,
85.9,-0.00118,-160.1,,,,,,,
85.95,-0.00123,-160.3,,,,,,,
86.0,-0.00128,-160.4,,,,,,,
86.05,-0.00133,-160.5,,,,,,,
86.1,-0.00139,-160.4,,,,,,,
86.15,-0.00144,-160.3,,,,,,,
86.2,-0.00149,-160.3,,,,,,,
86.22,-0.00151,-160.2,,,,,,,
86.24,-0.00154,-160.2,,,,,,,
86.29,-0.00159,-160.2,,,,,,,
86.34,-0.00164,-160.0,,,,,,,
86.38,-0.00169,-159.7,,,,,,,
86.43,-0.00174,-159.4,,,,,,,
86.49,-0.00179,-158.9,,,,,,,
86.54,-0.00184,-158.6,,,,,,,
86.59,-0.00189,-158.3,,,,,,,
86.65,-0.00194,-158.1,,,,,,,
86.7,-0.00199,-158.0,,,,,,,
86.72,-0.00201,-158.1,,,,,,,
86.75,-0.00204,-158.2,,,,,,,
86.8,-0.00209,-158.4,,,,,,,
86.85,-0.00214,-158.6,,,,,,,
86.9,-0.00219,-158.9,,,,,,,
86.95,-0.00224,-159.1,,,,,,,
87.0,-0.00229,-159.3,,,,,,,
87.05,-0.00235,-159.4,,,,,,,
87.1,-0.0024,-159.4,,,,,,,
87.15,-0.00245,-159.4,,,,,,,
87.19,-0.0025,-159.4,,,,,,,
87.22,-0.00252,-159.3,,,,,,,
87.25,-0.00255,-159.2,,,,,,,
87.3,-0.0026,-159.1,,,,,,,
87.36,-0.00265,-159.1,,,,,,,
87.41,-0.0027,-159.3,,,,,,,
87.46,-0.00275,-159.6,,,,,,,
87.51,-0.0028,-160.1,,,,,,,
87.56,-0.00285,-160.6,,,,,,,
87.61,-0.0029,-160.9,,,,,,,
87.66,-0.00295,-161.2,,,,,,,
87.7,-0.003,-161.5,,,,,,,
87.72,-0.00301,-161.5,,,,,,,
87.75,-0.00305,-161.7,,,,,,,
87.8,-0.0031,-161.9,,,,,,,
87.85,-0.00315,-161.9,,,,,,,
87.9,-0.0032,-161.9,,,,,,,
87.95,-0.00325,-161.9,,,,,,,
88.0,-0.0033,-161.8,,,,,,,
88.05,-0.00336,-161.7,,,,,,,
88.1,-0.00341,-161.5,,,,,,,
88.15,-0.00346,-161.4,,,,,,,
88.2,-0.00351,-161.4,,,,,,,
88.22,-0.00352,-161.3,,,,,,,
88.25,-0.00356,-161.2,,,,,,,
88.3,-0.00361,-161.1,,,,,,,
88.34,-0.00366,-161.0,,,,,,,
88.4,-0.00371,-160.7,,,,,,,
88.45,-0.00376,-160.5,,,,,,,
88.5,-0.00381,-160.3,,,,,,,
88.55,-0.00386,-160.1,,,,,,,
88.6,-0.00391,-160.0,,,,,,,
88.65,-0.00396,-159.9,,,,,,,
88.71,-0.00401,-160.0,,,,,,,
88.72,-0.00402,-160.0,,,,,,,
88.76,-0.00406,-160.1,,,,,,,
88.81,-0.00411,-160.3,,,,,,,
88.86,-0.00416,-160.6,,,,,,,
88.91,-0.00421,-160.9,,,,,,,
88.96,-0.00426,-161.1,,,,,,,
89.01,-0.00431,-161.3,,,,,,,
89.06,-0.00436,-161.5,,,,,,,
89.11,-0.00441,-161.6,,,,,,,
89.16,-0.00446,-161.9,,,,,,,
89.21,-0.00451,-162.1,,,,,,,
89.22,-0.00452,-162.1,,,,,,,
89.26,-0.00456,-162.3,,,,,,,
89.31,-0.00462,-162.4,,,,,,,
89.36,-0.00467,-162.6,,,,,,,
89.41,-0.00472,-162.6,,,,,,,
89.46,-0.00477,-162.7,,,,,,,
89.51,-0.00482,-162.8,,,,,,,
89.56,-0.00487,-162.9,,,,,,,
89.61,-0.00492,-163.1,,,,,,,
89.67,-0.00497,-163.3,,,,,,,
89.72,-0.00501,-162.3,,,,,,,
89.73,-0.00502,-161.8,,,,,,,
89.91,-0.00497,-131.4,,,,,,,
89.95,-0.00492,-122.1,,,,,,,
89.99,-0.00487,-113.8,,,,,,,
90.02,-0.00482,-106.3,,,,,,,
90.06,-0.00477,-99.11,,,,,,,
90.1,-0.00472,-92.39,,,,,,,
90.14,-0.00467,-86.11,,,,,,,
90.18,-0.00461,-79.63,,,,,,,
90.22,-0.00458,-75.58,,,,,,,
90.23,-0.00456,-73.46,,,,,,,
90.29,-0.00451,-67.11,,,,,,,
90.34,-0.00446,-60.84,,,,,,,
90.4,-0.00441,-54.37,,,,,,,
90.45,-0.00436,-48.03,,,,,,,
90.51,-0.00431,-41.85,,,,,,,
90.56,-0.00426,-36.0,,,,,,,
90.61,-0.00421,-29.98,,,,,,,
90.66,-0.00416,-24.38,,,,,,,
90.72,-0.00411,-18.59,,,,,,,
90.77,-0.00406,-12.65,,,,,,,
90.83,-0.00401,-6.91,,,,,,,
90.88,-0.00396,-1.45,,,,,,,
90.93,-0.00391,4.26,,,,,,,
90.99,-0.00386,9.78,,,,,,,
91.04,-0.00381,15.3,,,,,,,
91.09,-0.00376,20.26,,,,,,,
91.14,-0.00371,25.26,,,,,,,
91.19,-0.00366,29.55,,,,,,,
91.22,-0.00363,31.92,,,,,,,
91.24,-0.00361,33.27,,,,,,,
91.31,-0.00356,37.24,,,,,,,
91.39,-0.00351,41.72,,,,,,,
91.45,-0.00346,46.44,,,,,,,
91.52,-0.0034,51.99,,,,,,,
91.57,-0.00335,57.57,,,,,,,
91.61,-0.0033,63.0,,,,,,,
91.65,-0.00325,67.93,,,,,,,
91.7,-0.0032,72.33,,,,,,,
91.72,-0.00318,74.22,,,,,,,
91.74,-0.00315,76.51,,,,,,,
91.79,-0.0031,80.59,,,,,,,
91.85,-0.00305,84.28,,,,,,,
91.91,-0.003,87.96,,,,,,,
91.96,-0.00295,91.74,,,,,,,
92.02,-0.0029,95.57,,,,,,,
92.08,-0.00285,99.21,,,,,,,
92.13,-0.0028,102.86,,,,,,,
92.18,-0.00275,106.35,,,,,,,
92.22,-0.00271,108.85,,,,,,,
92.23,-0.0027,109.59,,,,,,,
92.28,-0.00265,112.86,,,,,,,
92.33,-0.0026,116.01,,,,,,,
92.38,-0.00255,119.21,,,,,,,
92.43,-0.00249,122.52,,,,,,,
92.48,-0.00244,126.42,,,,,,,
92.51,-0.00239,130.04,,,,,,,
92.55,-0.00234,133.62,,,,,,,
92.58,-0.00229,136.85,,,,,,,
92.62,-0.00224,139.81,,,,,,,
92.65,-0.00219,142.41,,,,,,,
92.69,-0.00214,144.76,,,,,,,
92.72,-0.0021,146.55,,,,,,,
92.72,-0.00209,146.8,,,,,,,
92.76,-0.00204,148.37,,,,,,,
92.79,-0.00199,149.66,,,,,,,
92.83,-0.00194,150.47,,,,,,,
92.87,-0.00189,151.0,,,,,,,
92.91,-0.00184,151.29,,,,,,,
92.96,-0.00179,151.34,,,,,,,
93.0,-0.00174,151.36,,,,,,,
93.05,-0.00169,151.19,,,,,,,
93.09,-0.00163,150.95,,,,,,,
93.14,-0.00158,150.51,,,,,,,
93.19,-0.00153,149.9,,,,,,,
93.22,-0.00151,149.59,,,,,,,
93.24,-0.00148,149.35,,,,,,,
93.29,-0.00143,148.85,,,,,,,
93.35,-0.00138,148.67,,,,,,,
93.4,-0.00133,148.71,,,,,,,
93.45,-0.00128,148.95,,,,,,,
93.5,-0.00123,149.29,,,,,,,
93.55,-0.00118,149.67,,,,,,,
93.6,-0.00113,149.99,,,,,,,
93.65,-0.00108,150.3,,,,,,,
93.7,-0.00103,150.54,,,,,,,
93.72,-0.00101,150.64,,,,,,,
93.75,-0.00098,150.72,,,,,,,
93.79,-0.00093,150.81,,,,,,,
93.84,-0.00088,150.83,,,,,,,
93.89,-0.00083,150.84,,,,,,,
93.95,-0.00078,150.84,,,,,,,
94.0,-0.00073,150.91,,,,,,,
94.04,-0.00068,150.97,,,,,,,
94.09,-0.00063,150.98,,,,,,,
94.14,-0.00057,150.9,,,,,,,
94.19,-0.00052,150.84,,,,,,,
94.22,-0.0005,150.81,,,,,,,
94.25,-0.00047,150.74,,,,,,,
94.3,-0.00042,150.76,,,,,,,
94.35,-0.00037,150.93,,,,,,,
94.4,-0.00032,151.2,,,,,,,
94.45,-0.00027,151.38,,,,,,,
94.5,-0.00022,151.67,,,,,,,
94.55,-0.00017,151.89,,,,,,,
94.6,-0.00012,151.98,,,,,,,
174.68,-7e-05,151.39,,,,,,,
174.72,-3e-05,151.19,,,,,,,
174.73,-2e-05,151.13,,,,,,,
174.78,4e-05,150.95,,,,,,,
174.84,9e-05,150.85,,,,,,,
174.89,0.00014,150.81,,,,,,,
174.94,0.00019,150.83,,,,,,,
175.0,0.00024,151.01,,,,,,,
175.05,0.00029,151.43,,,,,,,
175.1,0.00034,151.97,,,,,,,
175.15,0.00039,152.5,,,,,,,
175.2,0.00044,152.93,,,,,,,
175.22,0.00046,153.04,,,,,,,
175.24,0.00049,153.17,,,,,,,
175.29,0.00054,153.33,,,,,,,
175.34,0.00059,153.38,,,,,,,
175.38,0.00064,153.25,,,,,,,
175.43,0.00069,153.01,,,,,,,
175.48,0.00074,152.79,,,,,,,
175.53,0.00079,152.59,,,,,,,
175.59,0.00084,152.17,,,,,,,
175.64,0.00089,151.93,,,,,,,
175.69,0.00094,151.77,,,,,,,
175.72,0.00097,151.7,,,,,,,
175.75,0.00099,151.67,,,,,,,
175.8,0.00104,151.82,,,,,,,
175.85,0.00109,152.15,,,,,,,
175.91,0.00114,152.54,,,,,,,
175.95,0.00119,153.05,,,,,,,
176.0,0.00125,153.51,,,,,,,
176.05,0.0013,153.89,,,,,,,
176.1,0.00135,154.17,,,,,,,
176.15,0.0014,154.34,,,,,,,
176.2,0.00145,154.48,,,,,,,
176.22,0.00147,154.52,,,,,,,
176.25,0.0015,154.47,,,,,,,
176.3,0.00155,154.43,,,,,,,
176.34,0.0016,154.42,,,,,,,
176.39,0.00165,154.35,,,,,,,
176.45,0.0017,154.21,,,,,,,
176.49,0.00175,154.1,,,,,,,
176.54,0.0018,153.98,,,,,,,
176.6,0.00185,153.88,,,,,,,
176.66,0.0019,154.07,,,,,,,
176.71,0.00195,154.46,,,,,,,
176.72,0.00195,154.48,,,,,,,
176.77,0.002,155.08,,,,,,,
176.81,0.00205,155.67,,,,,,,
176.85,0.0021,156.08,,,,,,,
176.9,0.00216,156.27,,,,,,,
176.94,0.00221,156.23,,,,,,,
176.99,0.00226,155.97,,,,,,,
177.04,0.00231,155.61,,,,,,,
177.09,0.00236,155.04,,,,,,,
177.14,0.00241,154.55,,,,,,,
177.2,0.00246,154.22,,,,,,,
177.22,0.00247,154.15,,,,,,,
177.25,0.00251,154.11,,,,,,,
177.31,0.00256,154.2,,,,,,,
177.36,0.00261,154.46,,,,,,,
177.42,0.00266,154.96,,,,,,,
177.47,0.00271,155.56,,,,,,,
177.52,0.00276,156.23,,,,,,,
177.56,0.00281,156.89,,,,,,,
177.61,0.00286,157.34,,,,,,,
177.65,0.00291,157.65,,,,,,,
177.7,0.00296,157.76,,,,,,,
177.72,0.00298,157.7,,,,,,,
177.75,0.00301,157.63,,,,,,,
177.79,0.00306,157.28,,,,,,,
177.84,0.00311,156.81,,,,,,,
177.88,0.00316,156.3,,,,,,,
177.93,0.00321,155.56,,,,,,,
177.99,0.00327,154.68,,,,,,,
178.04,0.00332,154.0,,,,,,,
178.1,0.00337,153.52,,,,,,,
178.16,0.00342,153.37,,,,,,,
178.21,0.00347,153.61,,,,,,,
178.22,0.00347,153.64,,,,,,,
178.27,0.00352,154.05,,,,,,,
178.32,0.00357,154.57,,,,,,,
178.36,0.00362,155.02,,,,,,,
178.41,0.00367,155.47,,,,,,,
178.46,0.00372,155.81,,,,,,,
178.51,0.00377,156.14,,,,,,,
178.56,0.00382,156.33,,,,,,,
178.61,0.00387,156.45,,,,,,,
178.66,0.00392,156.54,,,,,,,
178.7,0.00397,156.59,,,,,,,
178.72,0.00398,156.59,,,,,,,
178.76,0.00402,156.65,,,,,,,
178.81,0.00407,156.71,,,,,,,
178.86,0.00412,156.83,,,,,,,
178.91,0.00417,156.94,,,,,,,
178.96,0.00422,157.15,,,,,,,
179.01,0.00427,157.31,,,,,,,
179.06,0.00432,157.51,,,,,,,
179.11,0.00437,157.81,,,,,,,
179.16,0.00442,158.02,,,,,,,
179.21,0.00447,158.08,,,,,,,
179.22,0.00448,158.09,,,,,,,
179.26,0.00452,158.07,,,,,,,
179.31,0.00458,158.12,,,,,,,
179.36,0.00463,158.13,,,,,,,
179.41,0.00468,158.16,,,,,,,
179.46,0.00473,158.15,,,,,,,
179.51,0.00478,158.11,,,,,,,
179.56,0.00483,158.08,,,,,,,
179.6,0.00488,158.01,,,,,,,
179.65,0.00493,157.83,,,,,,,
179.7,0.00498,157.56,,,,,,,
179.72,0.00499,157.37,,,,,,,
179.75,0.00503,156.02,,,,,,,
179.94,0.00498,124.5,,,,,,,
179.98,0.00493,115.5,,,,,,,
180.01,0.00488,107.45,,,,,,,
180.05,0.00483,100.15,,,,,,,
180.09,0.00478,92.99,,,,,,,
180.13,0.00473,86.01,,,,,,,
180.17,0.00468,79.27,,,,,,,
180.22,0.00463,72.93,,,,,,,
180.26,0.00457,66.64,,,,,,,
180.31,0.00452,60.58,,,,,,,
180.36,0.00447,54.84,,,,,,,
180.41,0.00442,49.44,,,,,,,
180.46,0.00437,43.85,,,,,,,
180.52,0.00432,38.7,,,,,,,
180.57,0.00427,33.01,,,,,,,
180.63,0.00422,27.43,,,,,,,
180.69,0.00417,21.69,,,,,,,
180.72,0.00414,18.5,,,,,,,
180.74,0.00412,16.03,,,,,,,
180.79,0.00407,10.52,,,,,,,
180.85,0.00402,5.09,,,,,,,
180.9,0.00397,-0.45,,,,,,,
180.96,0.00392,-5.85,,,,,,,
181.01,0.00387,-11.08,,,,,,,
181.06,0.00382,-15.85,,,,,,,
181.12,0.00377,-20.72,,,,,,,
181.18,0.00372,-24.91,,,,,,,
181.22,0.00369,-26.87,,,,,,,
181.25,0.00367,-28.08,,,,,,,
181.34,0.00362,-31.5,,,,,,,
181.43,0.00357,-36.36,,,,,,,
181.48,0.00352,-42.17,,,,,,,
181.53,0.00347,-48.81,,,,,,,
181.57,0.00341,-54.33,,,,,,,
181.61,0.00336,-59.15,,,,,,,
181.65,0.00331,-63.51,,,,,,,
181.69,0.00326,-67.52,,,,,,,
181.72,0.00324,-69.25,,,,,,,
181.74,0.00321,-71.13,,,,,,,
181.79,0.00316,-74.52,,,,,,,
181.85,0.00311,-77.67,,,,,,,
181.9,0.00306,-80.73,,,,,,,
181.96,0.00301,-84.1,,,,,,,
182.02,0.00296,-87.47,,,,,,,
182.07,0.00291,-90.93,,,,,,,
182.12,0.00286,-94.24,,,,,,,
182.18,0.00281,-98.24,,,,,,,
182.22,0.00277,-102.1,,,,,,,
182.23,0.00276,-103.1,,,,,,,
182.27,0.00271,-107.8,,,,,,,
182.3,0.00266,-112.1,,,,,,,
182.33,0.00261,-116.2,,,,,,,
182.37,0.00256,-119.9,,,,,,,
182.4,0.00251,-123.3,,,,,,,
182.43,0.00245,-126.5,,,,,,,
182.46,0.0024,-129.4,,,,,,,
182.5,0.00235,-131.9,,,,,,,
182.53,0.0023,-134.1,,,,,,,
182.57,0.00225,-135.9,,,,,,,
182.61,0.0022,-137.4,,,,,,,
182.64,0.00215,-138.5,,,,,,,
182.69,0.0021,-139.4,,,,,,,
182.72,0.00206,-139.7,,,,,,,
182.73,0.00205,-139.8,,,,,,,
182.77,0.002,-140.0,,,,,,,
182.82,0.00195,-139.9,,,,,,,
182.87,0.0019,-139.5,,,,,,,
182.92,0.00185,-139.3,,,,,,,
182.98,0.0018,-139.2,,,,,,,
183.04,0.00175,-139.3,,,,,,,
183.09,0.0017,-139.9,,,,,,,
183.15,0.00165,-140.5,,,,,,,
183.2,0.00159,-141.4,,,,,,,
183.22,0.00158,-141.7,,,,,,,
183.25,0.00154,-142.4,,,,,,,
183.3,0.00149,-143.3,,,,,,,
183.35,0.00144,-144.2,,,,,,,
183.4,0.00139,-145.1,,,,,,,
183.45,0.00134,-145.9,,,,,,,
183.5,0.00129,-146.8,,,,,,,
183.54,0.00124,-147.5,,,,,,,
183.6,0.00119,-148.3,,,,,,,
183.65,0.00114,-148.9,,,,,,,
183.7,0.00109,-149.6,,,,,,,
183.72,0.00107,-149.9,,,,,,,
183.75,0.00104,-150.5,,,,,,,
183.81,0.00099,-151.4,,,,,,,
183.86,0.00094,-152.4,,,,,,,
183.91,0.00089,-153.5,,,,,,,
183.96,0.00084,-154.4,,,,,,,
184.0,0.00079,-155.3,,,,,,,
184.05,0.00074,-156.0,,,,,,,
184.09,0.00069,-156.5,,,,,,,
184.14,0.00064,-156.8,,,,,,,
184.18,0.00059,-156.9,,,,,,,
184.22,0.00054,-156.8,,,,,,,
184.22,0.00054,-156.8,,,,,,,
184.27,0.00048,-156.4,,,,,,,
184.32,0.00043,-155.8,,,,,,,
184.36,0.00038,-155.2,,,,,,,
184.41,0.00033,-154.5,,,,,,,
184.46,0.00028,-153.6,,,,,,,
184.52,0.00023,-152.8,,,,,,,
184.57,0.00018,-152.2,,,,,,,
184.63,0.00013,-151.8,,,,,,,
184.68,8e-05,-151.7,,,,,,,
184.72,5e-05,-151.7,,,,,,,
184.74,3e-05,-151.9,,,,,,,
184.79,-2e-05,-152.3,,,,,,,
184.84,-7e-05,-152.8,,,,,,,
184.89,-0.00012,-153.5,,,,,,,
184.94,-0.00017,-154.0,,,,,,,
184.99,-0.00022,-154.6,,,,,,,
185.04,-0.00027,-155.1,,,,,,,
185.08,-0.00032,-155.4,,,,,,,
185.13,-0.00037,-155.6,,,,,,,
185.18,-0.00042,-155.7,,,,,,,
185.22,-0.00046,-155.6,,,,,,,
185.23,-0.00047,-155.6,,,,,,,
185.27,-0.00053,-155.4,,,,,,,
185.32,-0.00058,-155.1,,,,,,,
185.37,-0.00063,-154.8,,,,,,,
185.43,-0.00068,-154.6,,,,,,,
185.48,-0.00073,-154.4,,,,,,,
185.53,-0.00078,-154.3,,,,,,,
185.58,-0.00083,-154.2,,,,,,,
185.63,-0.00088,-154.2,,,,,,,
185.68,-0.00093,-154.0,,,,,,,
185.72,-0.00097,-153.9,,,,,,,
185.73,-0.00098,-153.9,,,,,,,
185.78,-0.00103,-153.8,,,,,,,
185.83,-0.00108,-153.7,,,,,,,
185.88,-0.00113,-153.6,,,,,,,
185.93,-0.00118,-153.6,,,,,,,
185.98,-0.00123,-153.7,,,,,,,
186.04,-0.00128,-153.7,,,,,,,
186.09,-0.00133,-153.9,,,,,,,
186.14,-0.00138,-154.2,,,,,,,
186.2,-0.00143,-154.7,,,,,,,
186.22,-0.00145,-154.9,,,,,,,
186.25,-0.00148,-155.3,,,,,,,
186.3,-0.00154,-155.9,,,,,,,
186.35,-0.00159,-156.4,,,,,,,
186.39,-0.00164,-157.0,,,,,,,
186.44,-0.00169,-157.4,,,,,,,
186.49,-0.00174,-157.6,,,,,,,
186.53,-0.00179,-157.7,,,,,,,
186.58,-0.00184,-157.7,,,,,,,
186.63,-0.00189,-157.6,,,,,,,
186.69,-0.00194,-157.5,,,,,,,
186.72,-0.00197,-157.4,,,,,,,
186.74,-0.00199,-157.5,,,,,,,
186.79,-0.00204,-157.6,,,,,,,
186.84,-0.00209,-157.7,,,,,,,
186.89,-0.00214,-157.9,,,,,,,
186.94,-0.00219,-158.1,,,,,,,
186.99,-0.00224,-158.3,,,,,,,
187.04,-0.00229,-158.5,,,,,,,
187.09,-0.00234,-158.7,,,,,,,
187.15,-0.0024,-158.9,,,,,,,
187.2,-0.00245,-159.2,,,,,,,
187.22,-0.00246,-159.3,,,,,,,
187.25,-0.0025,-159.5,,,,,,,
187.3,-0.00255,-159.9,,,,,,,
187.36,-0.0026,-160.4,,,,,,,
187.41,-0.00265,-160.9,,,,,,,
187.46,-0.0027,-161.4,,,,,,,
187.51,-0.00275,-162.0,,,,,,,
187.56,-0.0028,-162.6,,,,,,,
187.6,-0.00285,-162.9,,,,,,,
187.65,-0.0029,-163.2,,,,,,,
187.69,-0.00295,-163.3,,,,,,,
187.72,-0.00298,-163.3,,,,,,,
187.74,-0.003,-163.2,,,,,,,
187.79,-0.00305,-163.0,,,,,,,
187.84,-0.00311,-162.8,,,,,,,
187.89,-0.00316,-162.6,,,,,,,
187.94,-0.00321,-162.2,,,,,,,
187.99,-0.00326,-161.8,,,,,,,
188.04,-0.00331,-161.3,,,,,,,
188.09,-0.00336,-160.8,,,,,,,
188.15,-0.00341,-160.5,,,,,,,
188.2,-0.00346,-160.4,,,,,,,
188.22,-0.00348,-160.3,,,,,,,
188.25,-0.00351,-160.3,,,,,,,
188.3,-0.00356,-160.4,,,,,,,
188.36,-0.00361,-160.5,,,,,,,
188.41,-0.00366,-160.8,,,,,,,
188.46,-0.00371,-161.0,,,,,,,
188.51,-0.00376,-161.4,,,,,,,
188.56,-0.00381,-162.0,,,,,,,
188.61,-0.00386,-162.4,,,,,,,
188.66,-0.00391,-162.7,,,,,,,
188.71,-0.00396,-162.9,,,,,,,
188.72,-0.00397,-162.9,,,,,,,
188.76,-0.00401,-163.1,,,,,,,
188.81,-0.00406,-163.2,,,,,,,
188.86,-0.00411,-163.5,,,,,,,
188.91,-0.00416,-163.7,,,,,,,
188.96,-0.00421,-164.0,,,,,,,
189.01,-0.00427,-164.3,,,,,,,
189.06,-0.00432,-164.5,,,,,,,
189.1,-0.00437,-164.6,,,,,,,
189.14,-0.00442,-164.5,,,,,,,
189.19,-0.00447,-164.2,,,,,,,
189.22,-0.00449,-164.0,,,,,,,
189.24,-0.00452,-163.8,,,,,,,
189.29,-0.00457,-163.3,,,,,,,
189.34,-0.00462,-162.8,,,,,,,
189.39,-0.00467,-162.3,,,,,,,
189.44,-0.00472,-161.6,,,,,,,
189.5,-0.00477,-161.0,,,,,,,
189.55,-0.00482,-160.8,,,,,,,
189.61,-0.00487,-160.9,,,,,,,
189.66,-0.00492,-161.1,,,,,,,
189.72,-0.00497,-161.4,,,,,,,
189.72,-0.00497,-161.4,,,,,,,
189.77,-0.00502,-159.9,,,,,,,
189.96,-0.00497,-128.4,,,,,,,
190.0,-0.00492,-119.1,,,,,,,
190.03,-0.00487,-111.4,,,,,,,
190.07,-0.00482,-103.9,,,,,,,
190.1,-0.00477,-96.53,,,,,,,
190.14,-0.00472,-89.56,,,,,,,
190.19,-0.00467,-82.45,,,,,,,
190.22,-0.00464,-78.44,,,,,,,
190.24,-0.00461,-75.44,,,,,,,
190.29,-0.00456,-68.71,,,,,,,
190.34,-0.00451,-62.2,,,,,,,
190.39,-0.00446,-56.0,,,,,,,
190.45,-0.00441,-49.06,,,,,,,
190.51,-0.00436,-41.82,,,,,,,
190.57,-0.00431,-34.5,,,,,,,
190.62,-0.00426,-28.37,,,,,,,
190.67,-0.00421,-22.35,,,,,,,
190.72,-0.00416,-16.81,,,,,,,
190.72,-0.00416,-16.46,,,,,,,
190.76,-0.00411,-11.27,,,,,,,
190.81,-0.00406,-6.49,,,,,,,
190.85,-0.00401,-1.92,,,,,,,
190.9,-0.00396,2.8,,,,,,,
190.96,-0.00391,7.61,,,,,,,
191.01,-0.00386,12.07,,,,,,,
191.06,-0.00381,16.55,,,,,,,
191.11,-0.00376,21.11,,,,,,,
191.17,-0.00371,25.63,,,,,,,
191.22,-0.00366,29.43,,,,,,,
191.22,-0.00366,29.81,,,,,,,
191.3,-0.0036,34.63,,,,,,,
191.38,-0.00355,39.14,,,,,,,
191.45,-0.0035,44.26,,,,,,,
191.51,-0.00345,49.29,,,,,,,
191.57,-0.0034,55.07,,,,,,,
191.61,-0.00335,60.51,,,,,,,
191.65,-0.0033,65.55,,,,,,,
191.69,-0.00325,70.14,,,,,,,
191.72,-0.00322,72.57,,,,,,,
191.74,-0.0032,74.5,,,,,,,
191.79,-0.00315,78.85,,,,,,,
191.85,-0.0031,82.83,,,,,,,
191.9,-0.00305,86.39,,,,,,,
191.95,-0.003,89.94,,,,,,,
192.01,-0.00295,93.59,,,,,,,
192.06,-0.0029,96.92,,,,,,,
192.12,-0.00285,100.29,,,,,,,
192.17,-0.0028,103.75,,,,,,,
192.22,-0.00276,106.67,,,,,,,
192.23,-0.00275,107.42,,,,,,,
192.28,-0.0027,111.01,,,,,,,
192.34,-0.00265,114.77,,,,,,,
192.39,-0.0026,118.36,,,,,,,
192.43,-0.00255,121.6,,,,,,,
192.48,-0.00249,125.5,,,,,,,
192.51,-0.00244,129.09,,,,,,,
192.55,-0.00239,132.48,,,,,,,
192.58,-0.00234,135.66,,,,,,,
192.62,-0.00229,138.76,,,,,,,
192.65,-0.00224,141.52,,,,,,,
192.69,-0.00219,143.87,,,,,,,
192.72,-0.00215,145.69,,,,,,,
192.72,-0.00214,145.95,,,,,,,
192.76,-0.00209,147.65,,,,,,,
192.79,-0.00204,149.0,,,,,,,
192.83,-0.00199,150.02,,,,,,,
192.87,-0.00193,150.62,,,,,,,
192.91,-0.00188,150.79,,,,,,,
192.95,-0.00183,150.65,,,,,,,
192.99,-0.00178,150.07,,,,,,,
193.04,-0.00173,149.36,,,,,,,
193.09,-0.00168,148.63,,,,,,,
193.14,-0.00163,148.0,,,,,,,
193.19,-0.00158,147.39,,,,,,,
193.22,-0.00156,147.27,,,,,,,
193.26,-0.00153,147.12,,,,,,,
193.32,-0.00148,147.59,,,,,,,
193.37,-0.00143,148.38,,,,,,,
193.42,-0.00138,149.31,,,,,,,
193.46,-0.00133,150.13,,,,,,,
193.51,-0.00128,150.85,,,,,,,
193.55,-0.00123,151.43,,,,,,,
193.6,-0.00118,151.83,,,,,,,
193.65,-0.00113,152.02,,,,,,,
193.69,-0.00108,152.0,,,,,,,
193.72,-0.00105,151.93,,,,,,,
193.74,-0.00103,151.84,,,,,,,
193.78,-0.00098,151.56,,,,,,,
193.83,-0.00092,151.14,,,,,,,
193.88,-0.00087,150.55,,,,,,,
193.93,-0.00082,149.8,,,,,,,
193.98,-0.00077,149.43,,,,,,,
194.03,-0.00072,149.08,,,,,,,
194.08,-0.00067,148.77,,,,,,,
194.13,-0.00062,148.49,,,,,,,
194.19,-0.00057,148.25,,,,,,,
194.22,-0.00054,148.19,,,,,,,
194.24,-0.00052,148.11,,,,,,,
194.29,-0.00047,147.98,,,,,,,
194.34,-0.00042,147.92,,,,,,,
194.39,-0.00037,147.93,,,,,,,
194.45,-0.00032,147.97,,,,,,,
194.5,-0.00027,148.27,,,,,,,
194.55,-0.00022,148.66,,,,,,,
194.6,-0.00017,149.03,,,,,,,
194.66,-0.00012,149.65,,,,,,,
374.79,-4e-05,148.7,,,,,,,
374.85,1e-05,148.58,,,,,,,
374.91,6e-05,148.74,,,,,,,
374.96,0.00011,149.11,,,,,,,
375.01,0.00016,149.58,,,,,,,
375.06,0.00021,150.07,,,,,,,
375.11,0.00026,150.48,,,,,,,
375.16,0.00031,150.87,,,,,,,
375.21,0.00036,151.25,,,,,,,
375.22,0.00037,151.27,,,,,,,
375.26,0.00041,151.61,,,,,,,
375.31,0.00046,151.97,,,,,,,
375.36,0.00051,152.41,,,,,,,
375.41,0.00056,152.77,,,,,,,
375.47,0.00062,153.26,,,,,,,
375.51,0.00067,153.77,,,,,,,
375.56,0.00072,154.09,,,,,,,
375.61,0.00077,154.41,,,,,,,
375.66,0.00082,154.58,,,,,,,
375.71,0.00087,154.63,,,,,,,
375.72,0.00088,154.62,,,,,,,
375.75,0.00092,154.57,,,,,,,
375.8,0.00097,154.49,,,,,,,
375.85,0.00102,154.34,,,,,,,
375.9,0.00107,154.15,,,,,,,
375.95,0.00112,153.84,,,,,,,
376.0,0.00117,153.47,,,,,,,
376.04,0.00122,153.13,,,,,,,
376.09,0.00127,152.66,,,,,,,
376.15,0.00132,152.18,,,,,,,
376.21,0.00137,151.76,,,,,,,
376.22,0.00138,151.71,,,,,,,
376.26,0.00143,151.73,,,,,,,
376.32,0.00148,151.88,,,,,,,
376.37,0.00153,152.28,,,,,,,
376.43,0.00158,152.92,,,,,,,
376.48,0.00163,153.61,,,,,,,
376.52,0.00168,154.28,,,,,,,
376.57,0.00173,154.87,,,,,,,
376.62,0.00178,155.33,,,,,,,
376.66,0.00183,155.67,,,,,,,
376.71,0.00188,155.85,,,,,,,
376.72,0.00189,155.84,,,,,,,
376.75,0.00193,155.88,,,,,,,
376.8,0.00198,155.65,,,,,,,
376.85,0.00203,155.26,,,,,,,
376.9,0.00208,154.93,,,,,,,
376.95,0.00213,154.56,,,,,,,
377.0,0.00218,154.24,,,,,,,
377.05,0.00223,153.9,,,,,,,
377.11,0.00228,153.6,,,,,,,
377.16,0.00233,153.36,,,,,,,
377.22,0.00238,153.16,,,,,,,
377.22,0.00238,153.19,,,,,,,
377.27,0.00243,153.38,,,,,,,
377.32,0.00248,153.82,,,,,,,
377.37,0.00254,154.27,,,,,,,
377.42,0.00259,154.6,,,,,,,
377.47,0.00264,154.92,,,,,,,
377.52,0.00269,155.12,,,,,,,
377.57,0.00274,155.32,,,,,,,
377.62,0.00279,155.4,,,,,,,
377.67,0.00284,155.5,,,,,,,
377.72,0.00288,155.64,,,,,,,
377.72,0.00289,155.66,,,,,,,
377.77,0.00294,155.88,,,,,,,
377.82,0.00299,156.17,,,,,,,
377.87,0.00304,156.33,,,,,,,
377.91,0.00309,156.42,,,,,,,
377.96,0.00314,156.29,,,,,,,
378.0,0.00319,156.1,,,,,,,
378.05,0.00324,155.63,,,,,,,
378.11,0.00329,154.96,,,,,,,
378.16,0.00334,154.54,,,,,,,
378.22,0.00339,154.29,,,,,,,
378.22,0.00339,154.28,,,,,,,
378.27,0.00344,154.28,,,,,,,
378.33,0.00349,154.42,,,,,,,
378.38,0.00355,154.75,,,,,,,
378.43,0.0036,155.16,,,,,,,
378.48,0.00365,155.69,,,,,,,
378.53,0.0037,156.22,,,,,,,
378.58,0.00375,156.83,,,,,,,
378.63,0.0038,157.29,,,,,,,
378.67,0.00385,157.64,,,,,,,
378.72,0.0039,157.81,,,,,,,
378.72,0.0039,157.82,,,,,,,
378.76,0.00395,157.79,,,,,,,
378.81,0.004,157.48,,,,,,,
378.86,0.00405,157.04,,,,,,,
378.91,0.0041,156.54,,,,,,,
378.96,0.00415,156.21,,,,,,,
379.01,0.0042,155.88,,,,,,,
379.06,0.00425,155.6,,,,,,,
379.11,0.0043,155.26,,,,,,,
379.16,0.00435,154.78,,,,,,,
379.22,0.0044,154.33,,,,,,,
379.22,0.0044,154.33,,,,,,,
379.27,0.00445,154.11,,,,,,,
379.33,0.0045,154.1,,,,,,,
379.37,0.00456,154.28,,,,,,,
379.42,0.00461,154.39,,,,,,,
379.46,0.00466,154.39,,,,,,,
379.51,0.00471,154.33,,,,,,,
379.56,0.00476,154.02,,,,,,,
379.61,0.00481,153.58,,,,,,,
379.66,0.00486,153.15,,,,,,,
379.72,0.0049,152.85,,,,,,,
379.73,0.00491,152.81,,,,,,,
379.79,0.00496,153.0,,,,,,,
379.84,0.00501,152.24,,,,,,,
380.04,0.00496,120.15,,,,,,,
380.08,0.00491,111.78,,,,,,,
380.12,0.00486,103.88,,,,,,,
380.15,0.00481,96.57,,,,,,,
380.19,0.00476,89.84,,,,,,,
380.22,0.00472,85.31,,,,,,,
380.23,0.00471,83.33,,,,,,,
380.27,0.00466,77.18,,,,,,,
380.32,0.00461,70.99,,,,,,,
380.37,0.00456,64.47,,,,,,,
380.42,0.0045,59.06,,,,,,,
380.47,0.00445,52.73,,,,,,,
380.53,0.0044,47.03,,,,,,,
380.58,0.00435,41.33,,,,,,,
380.64,0.0043,34.71,,,,,,,
380.7,0.00425,28.49,,,,,,,
380.72,0.00424,26.84,,,,,,,
380.75,0.0042,22.94,,,,,,,
380.81,0.00415,17.22,,,,,,,
380.86,0.0041,11.65,,,,,,,
380.91,0.00405,6.18,,,,,,,
380.96,0.004,1.5,,,,,,,
381.01,0.00395,-3.43,,,,,,,
381.06,0.0039,-8.45,,,,,,,
381.12,0.00385,-13.39,,,,,,,
381.17,0.0038,-18.38,,,,,,,
381.22,0.00376,-21.72,,,,,,,
381.23,0.00375,-22.74,,,,,,,
381.29,0.0037,-26.39,,,,,,,
381.37,0.00365,-29.79,,,,,,,
381.46,0.0036,-33.25,,,,,,,
381.54,0.00355,-38.24,,,,,,,
381.59,0.0035,-45.16,,,,,,,
381.63,0.00344,-51.24,,,,,,,
381.67,0.00339,-56.41,,,,,,,
381.71,0.00334,-61.06,,,,,,,
381.72,0.00334,-61.56,,,,,,,
381.76,0.00329,-65.47,,,,,,,
381.81,0.00324,-69.66,,,,,,,
381.86,0.00319,-73.69,,,,,,,
381.92,0.00314,-77.54,,,,,,,
381.98,0.00309,-81.29,,,,,,,
382.03,0.00304,-84.58,,,,,,,
382.08,0.00299,-87.69,,,,,,,
382.12,0.00294,-90.64,,,,,,,
382.18,0.00289,-93.83,,,,,,,
382.22,0.00285,-96.17,,,,,,,
382.23,0.00284,-96.86,,,,,,,
382.27,0.00279,-100.3,,,,,,,
382.32,0.00274,-104.5,,,,,,,
382.36,0.00269,-108.9,,,,,,,
382.39,0.00264,-112.8,,,,,,,
382.42,0.00259,-116.3,,,,,,,
382.45,0.00253,-119.6,,,,,,,
382.49,0.00248,-122.6,,,,,,,
382.52,0.00243,-125.3,,,,,,,
382.55,0.00238,-127.9,,,,,,,
382.59,0.00233,-130.2,,,,,,,
382.63,0.00228,-132.1,,,,,,,
382.67,0.00223,-133.7,,,,,,,
382.7,0.00218,-134.9,,,,,,,
382.72,0.00216,-135.2,,,,,,,
382.75,0.00213,-135.8,,,,,,,
382.79,0.00208,-136.3,,,,,,,
382.83,0.00203,-136.6,,,,,,,
382.88,0.00198,-136.7,,,,,,,
382.94,0.00193,-136.8,,,,,,,
382.99,0.00188,-137.0,,,,,,,
383.05,0.00183,-137.5,,,,,,,
383.1,0.00178,-138.2,,,,,,,
383.16,0.00173,-139.1,,,,,,,
383.21,0.00167,-140.1,,,,,,,
383.22,0.00167,-140.3,,,,,,,
383.26,0.00162,-141.2,,,,,,,
383.31,0.00157,-142.3,,,,,,,
383.35,0.00152,-143.3,,,,,,,
383.4,0.00147,-144.2,,,,,,,
383.45,0.00142,-145.1,,,,,,,
383.5,0.00137,-145.9,,,,,,,
383.55,0.00132,-146.7,,,,,,,
383.6,0.00127,-147.5,,,,,,,
383.65,0.00122,-148.1,,,,,,,
383.69,0.00117,-148.6,,,,,,,
383.72,0.00114,-148.8,,,,,,,
383.74,0.00112,-149.0,,,,,,,
383.79,0.00107,-149.2,,,,,,,
383.84,0.00102,-149.3,,,,,,,
383.89,0.00097,-149.4,,,,,,,
383.95,0.00092,-149.6,,,,,,,
384.0,0.00087,-150.0,,,,,,,
384.05,0.00082,-150.6,,,,,,,
384.1,0.00077,-151.0,,,,,,,
384.14,0.00072,-151.4,,,,,,,
384.18,0.00066,-151.7,,,,,,,
384.22,0.00063,-151.8,,,,,,,
384.23,0.00061,-151.8,,,,,,,
384.28,0.00056,-151.7,,,,,,,
384.33,0.00051,-151.5,,,,,,,
384.38,0.00046,-151.3,,,,,,,
384.43,0.00041,-151.2,,,,,,,
384.47,0.00036,-151.0,,,,,,,
384.52,0.00031,-150.7,,,,,,,
384.57,0.00026,-150.3,,,,,,,
384.62,0.00021,-149.8,,,,,,,
384.68,0.00016,-149.4,,,,,,,
384.72,0.00013,-149.3,,,,,,,
384.74,0.00011,-149.2,,,,,,,
384.79,6e-05,-149.2,,,,,,,
384.85,1e-05,-149.5,,,,,,,
384.91,-4e-05,-150.0,,,,,,,
384.96,-9e-05,-151.0,,,,,,,
385.01,-0.00014,-152.2,,,,,,,
385.06,-0.00019,-153.2,,,,,,,
385.11,-0.00024,-154.1,,,,,,,
385.15,-0.00029,-154.9,,,,,,,
385.2,-0.00034,-155.5,,,,,,,
385.22,-0.00036,-155.7,,,,,,,
385.25,-0.0004,-156.0,,,,,,,
385.29,-0.00045,-156.2,,,,,,,
385.34,-0.0005,-156.4,,,,,,,
385.4,-0.00055,-156.5,,,,,,,
385.45,-0.0006,-156.6,,,,,,,
385.51,-0.00065,-157.0,,,,,,,
385.56,-0.0007,-157.6,,,,,,,
385.61,-0.00075,-158.3,,,,,,,
385.66,-0.0008,-158.9,,,,,,,
385.7,-0.00085,-159.5,,,,,,,
385.72,-0.00086,-159.6,,,,,,,
385.75,-0.0009,-159.9,,,,,,,
385.79,-0.00095,-160.1,,,,,,,
385.84,-0.001,-160.2,,,,,,,
385.88,-0.00105,-160.0,,,,,,,
385.92,-0.0011,-159.7,,,,,,,
385.97,-0.00115,-159.1,,,,,,,
386.01,-0.0012,-158.3,,,,,,,
386.06,-0.00125,-157.2,,,,,,,
386.12,-0.0013,-155.9,,,,,,,
386.17,-0.00135,-154.6,,,,,,,
386.22,-0.00139,-153.8,,,,,,,
386.23,-0.00141,-153.5,,,,,,,
386.29,-0.00146,-153.0,,,,,,,
386.35,-0.00151,-153.0,,,,,,,
386.4,-0.00156,-153.3,,,,,,,
386.45,-0.00161,-153.8,,,,,,,
386.5,-0.00166,-154.4,,,,,,,
386.55,-0.00171,-154.9,,,,,,,
386.6,-0.00176,-155.3,,,,,,,
386.65,-0.00181,-155.7,,,,,,,
386.7,-0.00186,-156.0,,,,,,,
386.72,-0.00188,-156.1,,,,,,,
386.75,-0.00191,-156.2,,,,,,,
386.8,-0.00196,-156.4,,,,,,,
386.85,-0.00201,-156.5,,,,,,,
386.9,-0.00206,-156.7,,,,,,,
386.95,-0.00211,-156.9,,,,,,,
387.0,-0.00216,-157.1,,,,,,,
387.05,-0.00221,-157.4,,,,,,,
387.1,-0.00226,-157.6,,,,,,,
387.14,-0.00231,-157.7,,,,,,,
387.19,-0.00236,-157.8,,,,,,,
387.22,-0.00238,-157.8,,,,,,,
387.25,-0.00241,-157.8,,,,,,,
387.3,-0.00246,-157.8,,,,,,,
387.35,-0.00252,-157.8,,,,,,,
387.41,-0.00257,-157.9,,,,,,,
387.46,-0.00262,-158.2,,,,,,,
387.51,-0.00267,-158.6,,,,,,,
387.56,-0.00272,-159.1,,,,,,,
387.61,-0.00277,-159.6,,,,,,,
387.66,-0.00282,-160.0,,,,,,,
387.71,-0.00287,-160.3,,,,,,,
387.72,-0.00288,-160.4,,,,,,,
387.75,-0.00292,-160.6,,,,,,,
387.8,-0.00297,-160.8,,,,,,,
387.85,-0.00302,-160.9,,,,,,,
387.89,-0.00307,-160.8,,,,,,,
387.94,-0.00312,-160.6,,,,,,,
387.99,-0.00317,-160.4,,,,,,,
388.05,-0.00322,-160.0,,,,,,,
388.1,-0.00327,-159.8,,,,,,,
388.16,-0.00332,-159.7,,,,,,,
388.21,-0.00337,-159.9,,,,,,,
388.22,-0.00338,-159.9,,,,,,,
388.26,-0.00342,-160.1,,,,,,,
388.31,-0.00347,-160.4,,,,,,,
388.35,-0.00352,-160.7,,,,,,,
388.4,-0.00358,-160.7,,,,,,,
388.44,-0.00363,-160.7,,,,,,,
388.49,-0.00368,-160.5,,,,,,,
388.55,-0.00373,-160.2,,,,,,,
388.61,-0.00378,-160.0,,,,,,,
388.66,-0.00383,-160.1,,,,,,,
388.71,-0.00388,-160.4,,,,,,,
388.72,-0.00388,-160.4,,,,,,,
388.76,-0.00393,-160.8,,,,,,,
388.81,-0.00398,-161.2,,,,,,,
388.86,-0.00403,-161.5,,,,,,,
388.91,-0.00408,-161.9,,,,,,,
388.96,-0.00413,-162.3,,,,,,,
389.01,-0.00418,-162.6,,,,,,,
389.06,-0.00423,-162.8,,,,,,,
389.1,-0.00428,-162.9,,,,,,,
389.15,-0.00433,-162.9,,,,,,,
389.2,-0.00438,-162.8,,,,,,,
389.22,-0.00439,-162.8,,,,,,,
389.26,-0.00443,-162.8,,,,,,,
389.31,-0.00448,-162.7,,,,,,,
389.36,-0.00453,-162.9,,,,,,,
389.41,-0.00458,-163.1,,,,,,,
389.46,-0.00463,-163.3,,,,,,,
389.5,-0.00468,-163.4,,,,,,,
389.55,-0.00473,-163.3,,,,,,,
389.6,-0.00478,-163.2,,,,,,,
389.65,-0.00483,-163.0,,,,,,,
389.7,-0.00488,-162.8,,,,,,,
389.72,-0.0049,-162.7,,,,,,,
389.75,-0.00493,-162.5,,,,,,,
389.8,-0.00498,-162.2,,,,,,,
389.85,-0.00504,-160.3,,,,,,,
390.03,-0.00498,-129.5,,,,,,,
390.07,-0.00493,-120.7,,,,,,,
390.1,-0.00488,-112.8,,,,,,,
390.14,-0.00483,-105.2,,,,,,,
390.17,-0.00478,-98.08,,,,,,,
390.21,-0.00473,-91.41,,,,,,,
390.22,-0.00472,-90.28,,,,,,,
390.25,-0.00468,-85.11,,,,,,,
390.3,-0.00463,-78.78,,,,,,,
390.35,-0.00458,-72.15,,,,,,,
390.41,-0.00453,-65.58,,,,,,,
390.46,-0.00448,-59.16,,,,,,,
390.52,-0.00443,-52.67,,,,,,,
390.57,-0.00438,-46.41,,,,,,,
390.62,-0.00433,-40.37,,,,,,,
390.68,-0.00428,-33.87,,,,,,,
390.72,-0.00424,-29.58,,,,,,,
390.73,-0.00423,-28.27,,,,,,,
390.78,-0.00418,-22.02,,,,,,,
390.83,-0.00413,-16.7,,,,,,,
390.88,-0.00408,-11.27,,,,,,,
390.93,-0.00403,-6.07,,,,,,,
390.98,-0.00398,-0.95,,,,,,,
391.04,-0.00393,4.33,,,,,,,
391.09,-0.00387,9.72,,,,,,,
391.15,-0.00382,15.01,,,,,,,
391.2,-0.00377,20.37,,,,,,,
391.22,-0.00376,21.83,,,,,,,
391.26,-0.00372,26.18,,,,,,,
391.32,-0.00367,31.32,,,,,,,
391.37,-0.00362,35.51,,,,,,,
391.43,-0.00357,39.04,,,,,,,
391.5,-0.00352,42.71,,,,,,,
391.58,-0.00347,47.12,,,,,,,
391.64,-0.00342,51.25,,,,,,,
391.7,-0.00337,57.88,,,,,,,
391.72,-0.00335,60.17,,,,,,,
391.74,-0.00332,64.03,,,,,,,
391.78,-0.00327,69.24,,,,,,,
391.82,-0.00322,73.82,,,,,,,
391.86,-0.00317,77.9,,,,,,,
391.91,-0.00312,81.7,,,,,,,
391.96,-0.00307,85.15,,,,,,,
392.01,-0.00302,88.49,,,,,,,
392.07,-0.00297,91.93,,,,,,,
392.13,-0.00291,95.28,,,,,,,
392.18,-0.00286,98.54,,,,,,,
392.22,-0.00283,100.66,,,,,,,
392.24,-0.00281,102.09,,,,,,,
392.29,-0.00276,105.46,,,,,,,
392.35,-0.00271,109.05,,,,,,,
392.4,-0.00266,112.3,,,,,,,
392.44,-0.00261,115.35,,,,,,,
392.49,-0.00256,118.24,,,,,,,
392.53,-0.00251,121.42,,,,,,,
392.58,-0.00246,124.93,,,,,,,
392.61,-0.00241,128.37,,,,,,,
392.65,-0.00236,131.55,,,,,,,
392.68,-0.00231,134.39,,,,,,,
392.72,-0.00226,136.99,,,,,,,
392.75,-0.00221,139.46,,,,,,,
392.79,-0.00216,141.5,,,,,,,
392.82,-0.00211,143.15,,,,,,,
392.86,-0.00206,144.49,,,,,,,
392.9,-0.002,145.6,,,,,,,
392.94,-0.00195,146.26,,,,,,,
392.98,-0.0019,146.71,,,,,,,
393.02,-0.00185,146.92,,,,,,,
393.07,-0.0018,146.96,,,,,,,
393.12,-0.00175,146.91,,,,,,,
393.17,-0.0017,146.84,,,,,,,
393.22,-0.00165,146.85,,,,,,,
393.22,-0.00165,146.85,,,,,,,
393.27,-0.0016,146.98,,,,,,,
393.32,-0.00155,147.13,,,,,,,
393.36,-0.0015,147.21,,,,,,,
393.42,-0.00145,147.31,,,,,,,
393.47,-0.0014,147.5,,,,,,,
393.52,-0.00135,147.86,,,,,,,
393.57,-0.0013,148.25,,,,,,,
393.62,-0.00125,148.77,,,,,,,
393.67,-0.0012,149.36,,,,,,,
393.71,-0.00115,149.73,,,,,,,
393.72,-0.00114,149.76,,,,,,,
393.76,-0.0011,150.02,,,,,,,
393.81,-0.00104,150.17,,,,,,,
393.86,-0.00099,150.32,,,,,,,
393.91,-0.00094,150.35,,,,,,,
393.96,-0.00089,150.27,,,,,,,
394.01,-0.00084,150.19,,,,,,,
394.06,-0.00079,150.19,,,,,,,
394.11,-0.00074,150.28,,,,,,,
394.16,-0.00069,150.36,,,,,,,
394.21,-0.00064,150.44,,,,,,,
394.22,-0.00063,150.46,,,,,,,
394.26,-0.00059,150.43,,,,,,,
394.31,-0.00054,150.43,,,,,,,
394.36,-0.00049,150.43,,,,,,,
394.41,-0.00044,150.48,,,,,,,
394.46,-0.00039,150.66,,,,,,,
394.51,-0.00034,150.85,,,,,,,
394.56,-0.00029,150.98,,,,,,,
394.61,-0.00024,151.03,,,,,,,
394.65,-0.00019,151.06,,,,,,,
394.7,-0.00014,150.86,,,,,,,
394.72,-0.00012,150.76,,,,,,,
394.75,-8e-05,150.45,,,,,,,
975.04,-5e-05,150.28,,,,,,,
975.09,-0.0,149.99,,,,,,,
975.14,5e-05,149.67,,,,,,,
975.19,0.0001,149.35,,,,,,,
975.22,0.00012,149.23,,,,,,,
975.25,0.00015,149.1,,,,,,,
975.3,0.0002,149.05,,,,,,,
975.35,0.00025,149.17,,,,,,,
975.41,0.0003,149.43,,,,,,,
975.46,0.00035,149.8,,,,,,,
975.51,0.0004,150.19,,,,,,,
975.56,0.00045,150.67,,,,,,,
975.61,0.0005,151.12,,,,,,,
975.66,0.00055,151.5,,,,,,,
975.7,0.0006,151.74,,,,,,,
975.72,0.00062,151.78,,,,,,,
975.75,0.00065,151.86,,,,,,,
975.8,0.0007,151.86,,,,,,,
975.85,0.00075,151.83,,,,,,,
975.9,0.0008,151.65,,,,,,,
975.95,0.00085,151.47,,,,,,,
976.0,0.00091,151.28,,,,,,,
976.05,0.00096,151.2,,,,,,,
976.11,0.00101,151.22,,,,,,,
976.16,0.00106,151.43,,,,,,,
976.21,0.00111,151.78,,,,,,,
976.22,0.00111,151.84,,,,,,,
976.26,0.00116,152.17,,,,,,,
976.31,0.00121,152.55,,,,,,,
976.36,0.00126,152.92,,,,,,,
976.41,0.00131,153.24,,,,,,,
976.46,0.00136,153.54,,,,,,,
976.5,0.00141,153.74,,,,,,,
976.55,0.00146,153.83,,,,,,,
976.6,0.00151,153.79,,,,,,,
976.65,0.00156,153.61,,,,,,,
976.7,0.00161,153.45,,,,,,,
976.72,0.00163,153.42,,,,,,,
976.75,0.00166,153.23,,,,,,,
976.8,0.00171,153.05,,,,,,,
976.85,0.00176,152.95,,,,,,,
976.9,0.00181,152.8,,,,,,,
976.95,0.00186,152.62,,,,,,,
977.0,0.00191,152.48,,,,,,,
977.05,0.00196,152.33,,,,,,,
977.1,0.00201,152.14,,,,,,,
977.16,0.00206,151.99,,,,,,,
977.21,0.00212,152.0,,,,,,,
977.22,0.00213,152.02,,,,,,,
977.26,0.00217,152.07,,,,,,,
977.31,0.00222,152.19,,,,,,,
977.37,0.00227,152.45,,,,,,,
977.42,0.00232,152.88,,,,,,,
977.47,0.00237,153.39,,,,,,,
977.53,0.00242,154.02,,,,,,,
977.58,0.00247,154.64,,,,,,,
977.62,0.00252,155.36,,,,,,,
977.67,0.00257,155.98,,,,,,,
977.72,0.00262,156.49,,,,,,,
977.72,0.00262,156.52,,,,,,,
977.76,0.00267,156.9,,,,,,,
977.81,0.00272,157.0,,,,,,,
977.85,0.00277,156.89,,,,,,,
977.9,0.00282,156.62,,,,,,,
977.95,0.00287,156.16,,,,,,,
978.01,0.00292,155.61,,,,,,,
978.06,0.00297,155.2,,,,,,,
978.11,0.00302,155.0,,,,,,,
978.15,0.00307,154.78,,,,,,,
978.2,0.00313,154.44,,,,,,,
978.22,0.00314,154.26,,,,,,,
978.25,0.00318,153.93,,,,,,,
978.3,0.00323,153.49,,,,,,,
978.36,0.00328,153.13,,,,,,,
978.41,0.00333,152.9,,,,,,,
978.46,0.00338,152.78,,,,,,,
978.51,0.00343,152.89,,,,,,,
978.56,0.00348,153.0,,,,,,,
978.61,0.00353,153.1,,,,,,,
978.67,0.00358,153.17,,,,,,,
978.72,0.00363,153.32,,,,,,,
978.72,0.00363,153.36,,,,,,,
978.77,0.00368,153.62,,,,,,,
978.82,0.00373,153.96,,,,,,,
978.87,0.00378,154.27,,,,,,,
978.93,0.00383,154.69,,,,,,,
978.98,0.00388,155.27,,,,,,,
979.03,0.00393,155.82,,,,,,,
979.07,0.00398,156.32,,,,,,,
979.12,0.00403,156.66,,,,,,,
979.17,0.00408,156.89,,,,,,,
979.21,0.00413,156.96,,,,,,,
979.22,0.00414,156.95,,,,,,,
979.26,0.00418,156.84,,,,,,,
979.31,0.00424,156.64,,,,,,,
979.36,0.00429,156.52,,,,,,,
979.41,0.00434,156.35,,,,,,,
979.47,0.00439,156.1,,,,,,,
979.52,0.00444,155.99,,,,,,,
979.57,0.00449,156.09,,,,,,,
979.62,0.00454,156.28,,,,,,,
979.67,0.00459,156.46,,,,,,,
979.72,0.00464,156.51,,,,,,,
979.77,0.00469,156.38,,,,,,,
979.82,0.00474,156.45,,,,,,,
979.87,0.00479,156.49,,,,,,,
979.92,0.00484,156.58,,,,,,,
979.97,0.00489,156.6,,,,,,,
980.02,0.00494,156.63,,,,,,,
980.07,0.00499,156.51,,,,,,,
980.13,0.00504,153.99,,,,,,,
980.22,0.00504,140.71,,,,,,,
980.27,0.00499,128.97,,,,,,,
980.31,0.00494,119.82,,,,,,,
980.35,0.00489,111.95,,,,,,,
980.38,0.00484,104.18,,,,,,,
980.42,0.00479,96.84,,,,,,,
980.46,0.00474,89.96,,,,,,,
980.51,0.00469,83.34,,,,,,,
980.55,0.00464,76.71,,,,,,,
980.6,0.00459,70.62,,,,,,,
980.65,0.00454,64.18,,,,,,,
980.7,0.00449,58.54,,,,,,,
980.72,0.00447,56.81,,,,,,,
980.75,0.00444,52.74,,,,,,,
980.81,0.00439,47.06,,,,,,,
980.86,0.00433,41.18,,,,,,,
980.91,0.00428,35.72,,,,,,,
980.97,0.00423,29.97,,,,,,,
981.02,0.00418,24.47,,,,,,,
981.08,0.00413,19.03,,,,,,,
981.13,0.00408,13.7,,,,,,,
981.18,0.00403,8.56,,,,,,,
981.22,0.004,5.14,,,,,,,
981.24,0.00398,3.09,,,,,,,
981.29,0.00393,-2.18,,,,,,,
981.34,0.00388,-7.08,,,,,,,
981.39,0.00383,-11.67,,,,,,,
981.44,0.00378,-16.41,,,,,,,
981.5,0.00373,-20.67,,,,,,,
981.56,0.00368,-24.34,,,,,,,
981.63,0.00363,-27.36,,,,,,,
981.72,0.00358,-30.29,,,,,,,
981.72,0.00358,-30.54,,,,,,,
981.81,0.00353,-35.41,,,,,,,
981.87,0.00348,-41.08,,,,,,,
981.92,0.00343,-46.95,,,,,,,
981.95,0.00338,-52.17,,,,,,,
981.99,0.00332,-56.93,,,,,,,
982.03,0.00327,-61.3,,,,,,,
982.08,0.00322,-65.39,,,,,,,
982.13,0.00317,-69.02,,,,,,,
982.18,0.00312,-72.58,,,,,,,
982.22,0.00309,-74.63,,,,,,,
982.24,0.00307,-76.22,,,,,,,
982.31,0.00302,-80.02,,,,,,,
982.37,0.00297,-83.81,,,,,,,
982.42,0.00292,-87.53,,,,,,,
982.47,0.00287,-91.3,,,,,,,
982.52,0.00282,-94.97,,,,,,,
982.57,0.00277,-98.89,,,,,,,
982.62,0.00272,-103.5,,,,,,,
982.66,0.00267,-108.2,,,,,,,
982.69,0.00262,-112.2,,,,,,,
982.72,0.00258,-115.6,,,,,,,
982.72,0.00257,-116.2,,,,,,,
982.75,0.00252,-119.9,,,,,,,
982.79,0.00247,-123.7,,,,,,,
982.82,0.00242,-126.8,,,,,,,
982.86,0.00236,-129.7,,,,,,,
982.89,0.00231,-132.3,,,,,,,
982.92,0.00226,-134.4,,,,,,,
982.96,0.00221,-136.2,,,,,,,
982.99,0.00216,-137.6,,,,,,,
983.03,0.00211,-138.7,,,,,,,
983.07,0.00206,-139.4,,,,,,,
983.12,0.00201,-139.7,,,,,,,
983.16,0.00196,-139.7,,,,,,,
983.22,0.00191,-139.5,,,,,,,
983.22,0.00191,-139.5,,,,,,,
983.27,0.00186,-139.4,,,,,,,
983.32,0.00181,-139.4,,,,,,,
983.37,0.00176,-139.5,,,,,,,
983.43,0.00171,-139.8,,,,,,,
983.48,0.00166,-140.3,,,,,,,
983.54,0.00161,-141.1,,,,,,,
983.58,0.00156,-141.9,,,,,,,
983.64,0.00151,-142.8,,,,,,,
983.69,0.00146,-143.8,,,,,,,
983.72,0.00143,-144.3,,,,,,,
983.74,0.00141,-144.9,,,,,,,
983.8,0.00136,-146.1,,,,,,,
983.84,0.00131,-147.2,,,,,,,
983.89,0.00125,-148.2,,,,,,,
983.94,0.0012,-149.1,,,,,,,
983.99,0.00115,-149.9,,,,,,,
984.03,0.0011,-150.7,,,,,,,
984.08,0.00105,-151.1,,,,,,,
984.13,0.001,-151.6,,,,,,,
984.19,0.00095,-152.1,,,,,,,
984.22,0.00092,-152.4,,,,,,,
984.24,0.0009,-152.8,,,,,,,
984.29,0.00085,-153.4,,,,,,,
984.33,0.0008,-154.0,,,,,,,
984.37,0.00075,-154.4,,,,,,,
984.42,0.0007,-154.6,,,,,,,
984.47,0.00065,-154.6,,,,,,,
984.51,0.0006,-154.6,,,,,,,
984.56,0.00055,-154.4,,,,,,,
984.6,0.0005,-154.0,,,,,,,
984.64,0.00045,-153.5,,,,,,,
984.69,0.0004,-152.8,,,,,,,
984.72,0.00037,-152.2,,,,,,,
984.74,0.00035,-151.9,,,,,,,
984.79,0.0003,-150.6,,,,,,,
984.85,0.00025,-149.5,,,,,,,
984.91,0.0002,-148.8,,,,,,,
984.96,0.00015,-148.5,,,,,,,
985.02,9e-05,-148.5,,,,,,,
985.08,4e-05,-148.8,,,,,,,
985.13,-1e-05,-149.4,,,,,,,
985.18,-6e-05,-150.2,,,,,,,
985.22,-9e-05,-150.8,,,,,,,
985.24,-0.00011,-151.1,,,,,,,
985.29,-0.00016,-152.0,,,,,,,
985.34,-0.00021,-153.0,,,,,,,
985.39,-0.00026,-153.8,,,,,,,
985.44,-0.00031,-154.7,,,,,,,
985.48,-0.00036,-155.4,,,,,,,
985.53,-0.00041,-156.0,,,,,,,
985.57,-0.00046,-156.4,,,,,,,
985.62,-0.00051,-156.7,,,,,,,
985.66,-0.00056,-156.7,,,,,,,
985.71,-0.00061,-156.5,,,,,,,
985.72,-0.00062,-156.5,,,,,,,
985.76,-0.00066,-156.2,,,,,,,
985.81,-0.00071,-155.9,,,,,,,
985.85,-0.00076,-155.4,,,,,,,
985.9,-0.00081,-154.9,,,,,,,
985.96,-0.00086,-154.2,,,,,,,
986.01,-0.00091,-153.9,,,,,,,
986.06,-0.00097,-153.6,,,,,,,
986.11,-0.00102,-153.3,,,,,,,
986.17,-0.00107,-153.1,,,,,,,
986.22,-0.00111,-153.1,,,,,,,
986.22,-0.00112,-153.1,,,,,,,
986.28,-0.00117,-153.3,,,,,,,
986.33,-0.00122,-153.7,,,,,,,
986.39,-0.00127,-154.4,,,,,,,
986.44,-0.00132,-155.2,,,,,,,
986.49,-0.00137,-155.9,,,,,,,
986.54,-0.00142,-156.7,,,,,,,
986.59,-0.00147,-157.3,,,,,,,
986.64,-0.00152,-157.9,,,,,,,
986.68,-0.00157,-158.5,,,,,,,
986.72,-0.00161,-158.8,,,,,,,
986.73,-0.00162,-158.9,,,,,,,
986.77,-0.00168,-159.1,,,,,,,
986.82,-0.00173,-159.1,,,,,,,
986.86,-0.00178,-158.9,,,,,,,
986.91,-0.00183,-158.5,,,,,,,
986.96,-0.00188,-157.9,,,,,,,
987.01,-0.00193,-157.1,,,,,,,
987.05,-0.00198,-156.3,,,,,,,
987.1,-0.00203,-155.6,,,,,,,
987.15,-0.00208,-154.7,,,,,,,
987.21,-0.00213,-153.9,,,,,,,
987.22,-0.00214,-153.7,,,,,,,
987.27,-0.00218,-153.1,,,,,,,
987.33,-0.00223,-152.7,,,,,,,
987.38,-0.00228,-152.8,,,,,,,
987.44,-0.00233,-153.1,,,,,,,
987.5,-0.00238,-153.6,,,,,,,
987.56,-0.00243,-154.6,,,,,,,
987.61,-0.00248,-155.9,,,,,,,
987.66,-0.00253,-157.4,,,,,,,
987.71,-0.00258,-158.6,,,,,,,
987.72,-0.0026,-158.9,,,,,,,
987.75,-0.00264,-159.6,,,,,,,
987.79,-0.00269,-160.4,,,,,,,
987.83,-0.00274,-160.9,,,,,,,
987.88,-0.00279,-161.1,,,,,,,
987.93,-0.00284,-161.2,,,,,,,
987.98,-0.00289,-161.0,,,,,,,
988.03,-0.00294,-160.8,,,,,,,
988.08,-0.00299,-160.7,,,,,,,
988.14,-0.00304,-160.7,,,,,,,
988.2,-0.00309,-161.1,,,,,,,
988.22,-0.0031,-161.2,,,,,,,
988.25,-0.00314,-161.7,,,,,,,
988.3,-0.00319,-162.4,,,,,,,
988.35,-0.00324,-162.9,,,,,,,
988.39,-0.00329,-163.3,,,,,,,
988.43,-0.00334,-163.4,,,,,,,
988.47,-0.00339,-163.2,,,,,,,
988.53,-0.00344,-162.8,,,,,,,
988.58,-0.00349,-162.3,,,,,,,
988.63,-0.00355,-161.8,,,,,,,
988.68,-0.0036,-161.2,,,,,,,
988.72,-0.00363,-160.9,,,,,,,
988.73,-0.00365,-160.8,,,,,,,
988.79,-0.0037,-160.6,,,,,,,
988.83,-0.00375,-160.5,,,,,,,
988.89,-0.0038,-160.3,,,,,,,
988.93,-0.00385,-160.3,,,,,,,
988.99,-0.0039,-160.2,,,,,,,
989.04,-0.00395,-160.1,,,,,,,
989.09,-0.004,-160.2,,,,,,,
989.14,-0.00405,-160.3,,,,,,,
989.19,-0.0041,-160.4,,,,,,,
989.22,-0.00413,-160.5,,,,,,,
989.23,-0.00415,-160.5,,,,,,,
989.28,-0.0042,-160.5,,,,,,,
989.32,-0.00425,-160.3,,,,,,,
989.37,-0.0043,-159.9,,,,,,,
989.42,-0.00435,-159.2,,,,,,,
989.47,-0.0044,-158.5,,,,,,,
989.53,-0.00445,-157.8,,,,,,,
989.59,-0.00451,-157.5,,,,,,,
989.65,-0.00456,-157.5,,,,,,,
989.71,-0.00461,-157.9,,,,,,,
989.72,-0.00461,-158.0,,,,,,,
989.76,-0.00466,-158.7,,,,,,,
989.81,-0.00471,-159.5,,,,,,,
989.86,-0.00476,-160.4,,,,,,,
989.91,-0.00481,-161.2,,,,,,,
989.96,-0.00486,-162.1,,,,,,,
990.01,-0.00491,-162.9,,,,,,,
990.06,-0.00496,-163.6,,,,,,,
990.12,-0.00501,-162.7,,,,,,,
990.22,-0.00504,-151.6,,,,,,,
990.31,-0.00496,-130.8,,,,,,,
990.35,-0.00491,-121.7,,,,,,,
990.39,-0.00486,-113.4,,,,,,,
990.42,-0.00481,-105.8,,,,,,,
990.46,-0.00476,-98.45,,,,,,,
990.5,-0.00471,-91.55,,,,,,,
990.55,-0.00466,-84.66,,,,,,,
990.6,-0.00461,-77.85,,,,,,,
990.66,-0.00456,-70.93,,,,,,,
990.71,-0.0045,-63.97,,,,,,,
990.72,-0.0045,-63.29,,,,,,,
990.77,-0.00445,-57.06,,,,,,,
990.82,-0.0044,-50.19,,,,,,,
990.88,-0.00435,-43.54,,,,,,,
990.93,-0.0043,-37.02,,,,,,,
990.98,-0.00425,-30.37,,,,,,,
991.04,-0.0042,-23.86,,,,,,,
991.09,-0.00415,-17.53,,,,,,,
991.14,-0.0041,-11.46,,,,,,,
991.19,-0.00405,-5.85,,,,,,,
991.22,-0.00402,-2.88,,,,,,,
991.24,-0.004,-0.06,,,,,,,
991.29,-0.00395,5.49,,,,,,,
991.35,-0.0039,11.07,,,,,,,
991.4,-0.00385,16.65,,,,,,,
991.45,-0.0038,22.12,,,,,,,
991.51,-0.00375,27.56,,,,,,,
991.56,-0.0037,32.55,,,,,,,
991.62,-0.00365,36.9,,,,,,,
991.7,-0.0036,41.11,,,,,,,
991.72,-0.00358,42.32,,,,,,,
991.77,-0.00355,45.92,,,,,,,
991.83,-0.0035,50.29,,,,,,,
991.9,-0.00345,55.32,,,,,,,
991.95,-0.0034,61.93,,,,,,,
991.98,-0.00335,67.45,,,,,,,
992.02,-0.00329,72.43,,,,,,,
992.06,-0.00324,76.88,,,,,,,
992.1,-0.00319,81.0,,,,,,,
992.15,-0.00314,84.68,,,,,,,
992.2,-0.00309,88.07,,,,,,,
992.22,-0.00308,89.01,,,,,,,
992.26,-0.00304,91.24,,,,,,,
992.31,-0.00299,94.66,,,,,,,
992.37,-0.00294,97.94,,,,,,,
992.43,-0.00289,101.37,,,,,,,
992.48,-0.00284,104.82,,,,,,,
992.53,-0.00279,107.99,,,,,,,
992.58,-0.00274,110.99,,,,,,,
992.63,-0.00269,113.92,,,,,,,
992.67,-0.00264,116.74,,,,,,,
992.72,-0.00259,119.23,,,,,,,
992.72,-0.00259,119.28,,,,,,,
992.76,-0.00254,122.41,,,,,,,
992.8,-0.00249,125.58,,,,,,,
992.83,-0.00244,128.66,,,,,,,
992.87,-0.00239,131.42,,,,,,,
992.9,-0.00234,133.93,,,,,,,
992.93,-0.00229,136.06,,,,,,,
992.97,-0.00224,137.96,,,,,,,
993.0,-0.00219,139.57,,,,,,,
993.04,-0.00214,140.8,,,,,,,
993.08,-0.00209,141.77,,,,,,,
993.11,-0.00203,142.28,,,,,,,
993.16,-0.00198,142.62,,,,,,,
993.2,-0.00193,142.71,,,,,,,
993.22,-0.00192,142.68,,,,,,,
993.25,-0.00188,142.66,,,,,,,
993.3,-0.00183,142.7,,,,,,,
993.36,-0.00178,142.91,,,,,,,
993.41,-0.00173,143.31,,,,,,,
993.46,-0.00168,143.91,,,,,,,
993.52,-0.00163,144.67,,,,,,,
993.57,-0.00158,145.62,,,,,,,
993.61,-0.00153,146.49,,,,,,,
993.66,-0.00148,147.29,,,,,,,
993.71,-0.00143,148.02,,,,,,,
993.72,-0.00142,148.14,,,,,,,
993.75,-0.00138,148.59,,,,,,,
993.8,-0.00133,148.99,,,,,,,
993.85,-0.00128,149.27,,,,,,,
993.9,-0.00123,149.47,,,,,,,
993.95,-0.00117,149.65,,,,,,,
994.0,-0.00112,149.96,,,,,,,
994.06,-0.00107,150.25,,,,,,,
994.1,-0.00102,150.55,,,,,,,
994.15,-0.00097,150.84,,,,,,,
994.2,-0.00092,151.06,,,,,,,
994.22,-0.00091,151.09,,,,,,,
994.25,-0.00087,151.17,,,,,,,
994.3,-0.00082,151.31,,,,,,,
994.35,-0.00077,151.38,,,,,,,
994.4,-0.00072,151.36,,,,,,,
994.45,-0.00067,151.32,,,,,,,
994.5,-0.00062,151.41,,,,,,,
994.54,-0.00057,151.44,,,,,,,
994.59,-0.00052,151.34,,,,,,,
994.65,-0.00047,151.17,,,,,,,
994.7,-0.00042,151.26,,,,,,,
994.72,-0.0004,151.27,,,,,,,
994.75,-0.00037,151.41,,,,,,,
994.8,-0.00032,151.65,,,,,,,
994.85,-0.00027,151.97,,,,,,,
994.9,-0.00022,152.11,,,,,,,
994.94,-0.00016,152.12,,,,,,,
994.99,-0.00011,151.97,,,,,,,
1960.48,0.00497,155.27,,,,,,,
1960.54,0.00502,154.1,,,,,,,
1960.72,0.00498,125.95,,,,,,,
1960.73,0.00497,123.74,,,,,,,
1960.76,0.00492,115.34,,,,,,,
1960.8,0.00487,107.02,,,,,,,
1960.84,0.00482,99.1,,,,,,,
1960.88,0.00476,92.06,,,,,,,
1960.92,0.00471,85.58,,,,,,,
1960.96,0.00466,79.08,,,,,,,
1961.01,0.00461,72.32,,,,,,,
1961.07,0.00456,65.25,,,,,,,
1961.13,0.00451,58.01,,,,,,,
1961.19,0.00446,50.8,,,,,,,
1961.22,0.00443,47.3,,,,,,,
1961.24,0.00441,44.56,,,,,,,
1961.29,0.00436,38.49,,,,,,,
1961.34,0.00431,32.54,,,,,,,
1961.39,0.00426,26.68,,,,,,,
1961.45,0.00421,20.39,,,,,,,
1961.5,0.00416,14.77,,,,,,,
1961.55,0.00411,9.28,,,,,,,
1961.6,0.00406,3.98,,,,,,,
1961.65,0.00401,-1.04,,,,,,,
1961.7,0.00396,-6.07,,,,,,,
1961.72,0.00394,-7.55,,,,,,,
1961.75,0.00391,-10.79,,,,,,,
1961.8,0.00386,-15.16,,,,,,,
1961.85,0.00381,-19.58,,,,,,,
1961.91,0.00376,-23.24,,,,,,,
1961.98,0.00371,-26.48,,,,,,,
1962.07,0.00365,-29.52,,,,,,,
1962.15,0.0036,-33.22,,,,,,,
1962.22,0.00357,-37.4,,,,,,,
1962.23,0.00355,-38.82,,,,,,,
1962.28,0.0035,-45.53,,,,,,,
1962.32,0.00345,-50.94,,,,,,,
1962.36,0.0034,-55.51,,,,,,,
1962.39,0.00335,-59.73,,,,,,,
1962.43,0.0033,-63.58,,,,,,,
1962.48,0.00325,-67.08,,,,,,,
1962.53,0.0032,-70.67,,,,,,,
1962.59,0.00315,-73.8,,,,,,,
1962.65,0.0031,-76.93,,,,,,,
1962.7,0.00305,-79.97,,,,,,,
1962.72,0.00303,-80.83,,,,,,,
1962.76,0.003,-83.33,,,,,,,
1962.81,0.00295,-86.63,,,,,,,
1962.86,0.0029,-89.74,,,,,,,
1962.91,0.00285,-92.97,,,,,,,
1962.96,0.00279,-96.71,,,,,,,
1963.0,0.00274,-100.7,,,,,,,
1963.04,0.00269,-105.2,,,,,,,
1963.08,0.00264,-109.5,,,,,,,
1963.12,0.00259,-113.3,,,,,,,
1963.15,0.00254,-117.0,,,,,,,
1963.19,0.00249,-120.3,,,,,,,
1963.22,0.00245,-123.1,,,,,,,
1963.22,0.00244,-123.5,,,,,,,
1963.26,0.00239,-126.4,,,,,,,
1963.29,0.00234,-129.0,,,,,,,
1963.33,0.00229,-131.1,,,,,,,
1963.37,0.00224,-132.8,,,,,,,
1963.4,0.00219,-134.3,,,,,,,
1963.45,0.00213,-135.5,,,,,,,
1963.49,0.00208,-136.3,,,,,,,
1963.54,0.00203,-137.0,,,,,,,
1963.59,0.00198,-137.7,,,,,,,
1963.64,0.00193,-138.3,,,,,,,
1963.69,0.00188,-138.9,,,,,,,
1963.72,0.00186,-139.3,,,,,,,
1963.74,0.00183,-139.5,,,,,,,
1963.79,0.00178,-140.1,,,,,,,
1963.84,0.00173,-140.8,,,,,,,
1963.89,0.00168,-141.3,,,,,,,
1963.94,0.00163,-142.1,,,,,,,
1963.99,0.00158,-142.7,,,,,,,
1964.04,0.00153,-143.4,,,,,,,
1964.09,0.00148,-144.0,,,,,,,
1964.14,0.00143,-144.5,,,,,,,
1964.19,0.00138,-145.0,,,,,,,
1964.22,0.00135,-145.2,,,,,,,
1964.24,0.00132,-145.5,,,,,,,
1964.29,0.00127,-146.0,,,,,,,
1964.34,0.00122,-146.4,,,,,,,
1964.38,0.00117,-146.8,,,,,,,
1964.43,0.00112,-147.1,,,,,,,
1964.48,0.00107,-147.4,,,,,,,
1964.53,0.00102,-147.6,,,,,,,
1964.58,0.00097,-147.8,,,,,,,
1964.63,0.00092,-148.0,,,,,,,
1964.68,0.00087,-148.2,,,,,,,
1964.72,0.00084,-148.4,,,,,,,
1964.73,0.00082,-148.5,,,,,,,
1964.78,0.00077,-148.7,,,,,,,
1964.83,0.00072,-149.0,,,,,,,
1964.89,0.00067,-149.3,,,,,,,
1964.94,0.00062,-149.6,,,,,,,
1964.99,0.00057,-150.0,,,,,,,
1965.04,0.00052,-150.4,,,,,,,
1965.08,0.00047,-150.8,,,,,,,
1965.13,0.00042,-151.1,,,,,,,
1965.18,0.00037,-151.2,,,,,,,
1965.22,0.00033,-151.3,,,,,,,
1965.23,0.00032,-151.2,,,,,,,
1965.27,0.00027,-151.2,,,,,,,
1965.32,0.00022,-151.0,,,,,,,
1965.37,0.00016,-150.6,,,,,,,
1965.42,0.00011,-150.2,,,,,,,
1965.47,6e-05,-149.8,,,,,,,
1965.52,1e-05,-149.4,,,,,,,
1965.58,-4e-05,-149.3,,,,,,,
1965.63,-9e-05,-149.3,,,,,,,
1965.68,-0.00014,-149.6,,,,,,,
1965.72,-0.00017,-149.9,,,,,,,
1965.74,-0.00019,-150.0,,,,,,,
1965.79,-0.00024,-150.5,,,,,,,
1965.85,-0.00029,-150.9,,,,,,,
1965.9,-0.00034,-151.6,,,,,,,
1965.95,-0.00039,-152.3,,,,,,,
1966.0,-0.00044,-153.1,,,,,,,
1966.05,-0.00049,-153.9,,,,,,,
1966.1,-0.00054,-154.7,,,,,,,
1966.14,-0.00059,-155.2,,,,,,,
1966.19,-0.00064,-155.7,,,,,,,
1966.22,-0.00068,-155.9,,,,,,,
1966.23,-0.00069,-156.0,,,,,,,
1966.28,-0.00075,-156.1,,,,,,,
1966.33,-0.0008,-156.1,,,,,,,
1966.38,-0.00085,-155.9,,,,,,,
1966.42,-0.0009,-155.7,,,,,,,
1966.47,-0.00095,-155.3,,,,,,,
1966.52,-0.001,-154.8,,,,,,,
1966.57,-0.00105,-154.3,,,,,,,
1966.63,-0.0011,-153.7,,,,,,,
1966.68,-0.00115,-153.4,,,,,,,
1966.72,-0.00118,-153.4,,,,,,,
1966.74,-0.0012,-153.4,,,,,,,
1966.79,-0.00125,-153.5,,,,,,,
1966.83,-0.0013,-153.7,,,,,,,
1966.88,-0.00135,-153.8,,,,,,,
1966.93,-0.0014,-153.9,,,,,,,
1966.98,-0.00145,-154.0,,,,,,,
1967.03,-0.0015,-154.1,,,,,,,
1967.08,-0.00155,-154.1,,,,,,,
1967.13,-0.0016,-154.0,,,,,,,
1967.18,-0.00165,-153.9,,,,,,,
1967.22,-0.00168,-153.8,,,,,,,
1967.24,-0.0017,-153.9,,,,,,,
1967.29,-0.00175,-154.2,,,,,,,
1967.35,-0.0018,-154.6,,,,,,,
1967.39,-0.00185,-155.1,,,,,,,
1967.44,-0.0019,-155.5,,,,,,,
1967.49,-0.00196,-155.8,,,,,,,
1967.53,-0.00201,-156.0,,,,,,,
1967.58,-0.00206,-156.0,,,,,,,
1967.63,-0.00211,-156.0,,,,,,,
1967.68,-0.00216,-155.9,,,,,,,
1967.72,-0.00219,-155.8,,,,,,,
1967.73,-0.00221,-155.8,,,,,,,
1967.78,-0.00226,-155.6,,,,,,,
1967.84,-0.00231,-155.5,,,,,,,
1967.89,-0.00236,-155.7,,,,,,,
1967.95,-0.00241,-156.0,,,,,,,
1968.0,-0.00246,-156.3,,,,,,,
1968.05,-0.00251,-156.7,,,,,,,
1968.1,-0.00256,-157.2,,,,,,,
1968.15,-0.00261,-157.6,,,,,,,
1968.19,-0.00266,-157.9,,,,,,,
1968.22,-0.00269,-158.0,,,,,,,
1968.24,-0.00271,-158.1,,,,,,,
1968.29,-0.00276,-158.3,,,,,,,
1968.34,-0.00282,-158.4,,,,,,,
1968.39,-0.00287,-158.4,,,,,,,
1968.44,-0.00292,-158.4,,,,,,,
1968.49,-0.00297,-158.5,,,,,,,
1968.54,-0.00302,-158.5,,,,,,,
1968.59,-0.00307,-158.5,,,,,,,
1968.65,-0.00312,-158.5,,,,,,,
1968.69,-0.00317,-158.7,,,,,,,
1968.72,-0.00319,-158.7,,,,,,,
1968.74,-0.00322,-158.6,,,,,,,
1968.79,-0.00327,-158.5,,,,,,,
1968.84,-0.00332,-158.4,,,,,,,
1968.89,-0.00337,-158.2,,,,,,,
1968.94,-0.00342,-157.9,,,,,,,
1968.99,-0.00347,-157.7,,,,,,,
1969.04,-0.00352,-157.6,,,,,,,
1969.09,-0.00357,-157.6,,,,,,,
1969.15,-0.00362,-157.5,,,,,,,
1969.2,-0.00368,-157.5,,,,,,,
1969.22,-0.00369,-157.6,,,,,,,
1969.25,-0.00373,-157.7,,,,,,,
1969.31,-0.00378,-158.0,,,,,,,
1969.36,-0.00383,-158.5,,,,,,,
1969.41,-0.00388,-159.1,,,,,,,
1969.46,-0.00393,-159.6,,,,,,,
1969.5,-0.00398,-160.0,,,,,,,
1969.55,-0.00403,-160.2,,,,,,,
1969.6,-0.00408,-160.4,,,,,,,
1969.65,-0.00413,-160.5,,,,,,,
1969.69,-0.00418,-160.5,,,,,,,
1969.72,-0.0042,-160.4,,,,,,,
1969.74,-0.00423,-160.3,,,,,,,
1969.8,-0.00428,-160.0,,,,,,,
1969.86,-0.00433,-160.0,,,,,,,
1969.91,-0.00438,-160.2,,,,,,,
1969.97,-0.00443,-160.6,,,,,,,
1970.01,-0.00448,-161.1,,,,,,,
1970.06,-0.00453,-161.6,,,,,,,
1970.11,-0.00458,-162.0,,,,,,,
1970.16,-0.00464,-162.2,,,,,,,
1970.2,-0.00469,-162.3,,,,,,,
1970.22,-0.0047,-162.3,,,,,,,
1970.25,-0.00474,-162.3,,,,,,,
1970.3,-0.00479,-162.2,,,,,,,
1970.35,-0.00484,-162.1,,,,,,,
1970.4,-0.00489,-161.9,,,,,,,
1970.45,-0.00494,-161.6,,,,,,,
1970.5,-0.00499,-161.3,,,,,,,
1970.56,-0.00504,-158.9,,,,,,,
1970.72,-0.005,-131.8,,,,,,,
1970.73,-0.00499,-129.7,,,,,,,
1970.76,-0.00494,-120.6,,,,,,,
1970.8,-0.00489,-112.3,,,,,,,
1970.83,-0.00484,-104.9,,,,,,,
1970.87,-0.00479,-97.65,,,,,,,
1970.91,-0.00474,-90.41,,,,,,,
1970.96,-0.00469,-83.85,,,,,,,
1971.0,-0.00464,-77.04,,,,,,,
1971.05,-0.00458,-70.42,,,,,,,
1971.11,-0.00453,-63.77,,,,,,,
1971.16,-0.00448,-56.92,,,,,,,
1971.22,-0.00443,-50.61,,,,,,,
1971.27,-0.00438,-44.55,,,,,,,
1971.32,-0.00433,-38.6,,,,,,,
1971.37,-0.00428,-33.02,,,,,,,
1971.42,-0.00423,-27.77,,,,,,,
1971.47,-0.00418,-22.28,,,,,,,
1971.52,-0.00413,-16.99,,,,,,,
1971.57,-0.00408,-11.6,,,,,,,
1971.62,-0.00403,-6.47,,,,,,,
1971.68,-0.00398,-1.25,,,,,,,
1971.72,-0.00394,2.66,,,,,,,
1971.73,-0.00393,3.67,,,,,,,
1971.79,-0.00388,9.08,,,,,,,
1971.84,-0.00383,14.67,,,,,,,
1971.9,-0.00378,19.8,,,,,,,
1971.95,-0.00373,24.87,,,,,,,
1972.0,-0.00368,29.42,,,,,,,
1972.05,-0.00363,33.51,,,,,,,
1972.12,-0.00358,37.12,,,,,,,
1972.19,-0.00353,41.03,,,,,,,
1972.22,-0.00351,42.35,,,,,,,
1972.27,-0.00347,45.17,,,,,,,
1972.34,-0.00342,49.52,,,,,,,
1972.4,-0.00337,54.86,,,,,,,
1972.45,-0.00332,61.25,,,,,,,
1972.48,-0.00327,66.51,,,,,,,
1972.52,-0.00322,71.47,,,,,,,
1972.56,-0.00317,75.75,,,,,,,
1972.6,-0.00312,79.76,,,,,,,
1972.65,-0.00307,83.3,,,,,,,
1972.7,-0.00302,86.42,,,,,,,
1972.72,-0.003,87.62,,,,,,,
1972.75,-0.00297,89.38,,,,,,,
1972.81,-0.00292,92.6,,,,,,,
1972.87,-0.00287,95.99,,,,,,,
1972.92,-0.00282,99.09,,,,,,,
1972.97,-0.00277,102.19,,,,,,,
1973.03,-0.00272,105.58,,,,,,,
1973.08,-0.00267,108.83,,,,,,,
1973.13,-0.00262,111.97,,,,,,,
1973.18,-0.00257,115.19,,,,,,,
1973.22,-0.00253,117.75,,,,,,,
1973.23,-0.00252,118.81,,,,,,,
1973.27,-0.00247,122.43,,,,,,,
1973.31,-0.00242,126.18,,,,,,,
1973.35,-0.00237,129.62,,,,,,,
1973.38,-0.00231,132.94,,,,,,,
1973.41,-0.00226,135.73,,,,,,,
1973.45,-0.00221,138.4,,,,,,,
1973.48,-0.00216,140.59,,,,,,,
1973.52,-0.00211,142.38,,,,,,,
1973.55,-0.00206,143.78,,,,,,,
1973.59,-0.00201,144.84,,,,,,,
1973.62,-0.00196,145.58,,,,,,,
1973.67,-0.00191,145.97,,,,,,,
1973.71,-0.00186,146.08,,,,,,,
1973.72,-0.00185,146.05,,,,,,,
1973.76,-0.00181,145.95,,,,,,,
1973.81,-0.00176,145.87,,,,,,,
1973.86,-0.00171,145.68,,,,,,,
1973.9,-0.00166,145.67,,,,,,,
1973.95,-0.00161,145.66,,,,,,,
1974.0,-0.00155,145.51,,,,,,,
1974.06,-0.0015,145.55,,,,,,,
1974.11,-0.00145,145.73,,,,,,,
1974.16,-0.0014,145.97,,,,,,,
1974.2,-0.00135,146.28,,,,,,,
1974.22,-0.00134,146.36,,,,,,,
1974.25,-0.0013,146.46,,,,,,,
1974.3,-0.00125,146.51,,,,,,,
1974.34,-0.0012,146.54,,,,,,,
1974.4,-0.00115,146.47,,,,,,,
1974.45,-0.0011,146.57,,,,,,,
1974.5,-0.00105,146.82,,,,,,,
1974.55,-0.001,147.07,,,,,,,
1974.61,-0.00095,147.36,,,,,,,
1974.66,-0.0009,147.72,,,,,,,
1974.71,-0.00085,148.12,,,,,,,
1974.72,-0.00084,148.18,,,,,,,
1974.76,-0.0008,148.48,,,,,,,
1974.81,-0.00075,148.95,,,,,,,
1974.86,-0.0007,149.39,,,,,,,
1974.91,-0.00065,149.63,,,,,,,
1974.95,-0.0006,149.76,,,,,,,
1975.0,-0.00055,149.85,,,,,,,
1975.05,-0.00049,149.76,,,,,,,
1975.1,-0.00044,149.64,,,,,,,
1975.15,-0.00039,149.53,,,,,,,
1975.2,-0.00034,149.41,,,,,,,
1975.22,-0.00033,149.33,,,,,,,
1975.25,-0.00029,149.3,,,,,,,
1975.3,-0.00024,149.36,,,,,,,
1975.35,-0.00019,149.24,,,,,,,
1975.39,-0.00014,149.17,,,,,,,
1975.45,-9e-05,149.01,,,,,,,
1975.5,-4e-05,148.88,,,,,,,
1975.56,1e-05,148.77,,,,,,,
1975.61,6e-05,148.96,,,,,,,
1975.66,0.00011,149.38,,,,,,,
1975.71,0.00016,149.78,,,,,,,
1975.72,0.00016,149.85,,,,,,,
1975.76,0.00021,150.19,,,,,,,
1975.81,0.00026,150.46,,,,,,,
1975.86,0.00031,150.66,,,,,,,
1975.9,0.00036,150.71,,,,,,,
1975.96,0.00041,150.7,,,,,,,
1976.01,0.00046,150.71,,,,,,,
1976.06,0.00051,150.85,,,,,,,
1976.11,0.00056,151.11,,,,,,,
1976.16,0.00062,151.36,,,,,,,
1976.21,0.00067,151.52,,,,,,,
1976.22,0.00067,151.54,,,,,,,
1976.26,0.00072,151.64,,,,,,,
1976.31,0.00077,151.77,,,,,,,
1976.36,0.00082,151.83,,,,,,,
1976.41,0.00087,151.84,,,,,,,
1976.46,0.00092,151.87,,,,,,,
1976.51,0.00097,151.9,,,,,,,
1976.56,0.00102,151.94,,,,,,,
1976.6,0.00107,151.9,,,,,,,
1976.65,0.00112,151.69,,,,,,,
1976.71,0.00117,151.43,,,,,,,
1976.72,0.00118,151.4,,,,,,,
1976.75,0.00122,151.28,,,,,,,
1976.81,0.00127,150.97,,,,,,,
1976.86,0.00132,150.77,,,,,,,
1976.91,0.00137,150.71,,,,,,,
1976.97,0.00142,150.73,,,,,,,
1977.02,0.00148,150.98,,,,,,,
1977.07,0.00153,151.42,,,,,,,
1977.12,0.00158,151.79,,,,,,,
1977.17,0.00163,152.07,,,,,,,
1977.22,0.00167,152.42,,,,,,,
1977.22,0.00168,152.42,,,,,,,
1977.27,0.00173,152.76,,,,,,,
1977.32,0.00178,153.07,,,,,,,
1977.36,0.00183,153.28,,,,,,,
1977.41,0.00188,153.31,,,,,,,
1977.46,0.00193,153.27,,,,,,,
1977.51,0.00198,153.15,,,,,,,
1977.56,0.00203,153.02,,,,,,,
1977.61,0.00208,152.85,,,,,,,
1977.66,0.00213,152.64,,,,,,,
1977.71,0.00218,152.53,,,,,,,
1977.72,0.00219,152.53,,,,,,,
1977.77,0.00223,152.49,,,,,,,
1977.82,0.00228,152.6,,,,,,,
1977.87,0.00233,152.8,,,,,,,
1977.91,0.00238,152.96,,,,,,,
1977.97,0.00243,153.02,,,,,,,
1978.02,0.00249,153.03,,,,,,,
1978.07,0.00254,153.09,,,,,,,
1978.12,0.00259,153.14,,,,,,,
1978.17,0.00264,153.21,,,,,,,
1978.22,0.00269,153.26,,,,,,,
1978.22,0.00269,153.26,,,,,,,
1978.27,0.00274,153.28,,,,,,,
1978.32,0.00279,153.28,,,,,,,
1978.37,0.00284,153.25,,,,,,,
1978.41,0.00289,153.22,,,,,,,
1978.47,0.00294,153.11,,,,,,,
1978.52,0.00299,153.02,,,,,,,
1978.57,0.00304,153.02,,,,,,,
1978.62,0.00309,153.11,,,,,,,
1978.67,0.00314,153.22,,,,,,,
1978.72,0.00319,153.3,,,,,,,
1978.72,0.00319,153.3,,,,,,,
1978.77,0.00324,153.41,,,,,,,
1978.82,0.00329,153.51,,,,,,,
1978.87,0.00334,153.67,,,,,,,
1978.92,0.00339,153.93,,,,,,,
1978.98,0.00344,154.12,,,,,,,
1979.03,0.0035,154.38,,,,,,,
1979.08,0.00355,154.61,,,,,,,
1979.13,0.0036,154.82,,,,,,,
1979.18,0.00365,155.04,,,,,,,
1979.22,0.00368,155.21,,,,,,,
1979.23,0.0037,155.29,,,,,,,
1979.28,0.00375,155.52,,,,,,,
1979.33,0.0038,155.74,,,,,,,
1979.37,0.00385,155.91,,,,,,,
1979.42,0.0039,155.96,,,,,,,
1979.47,0.00395,155.9,,,,,,,
1979.52,0.004,155.82,,,,,,,
1979.57,0.00405,155.71,,,,,,,
1979.62,0.0041,155.36,,,,,,,
1979.67,0.00415,154.87,,,,,,,
1979.72,0.0042,154.56,,,,,,,
1979.72,0.0042,154.52,,,,,,,
1979.77,0.00425,154.29,,,,,,,
1979.83,0.0043,154.18,,,,,,,
1979.88,0.00435,154.32,,,,,,,
1979.93,0.0044,154.58,,,,,,,
1979.98,0.00446,154.84,,,,,,,
1980.03,0.00451,155.08,,,,,,,
1980.08,0.00456,155.26,,,,,,,
1980.13,0.00461,155.53,,,,,,,
1980.18,0.00466,155.75,,,,,,,
1980.22,0.00469,155.9,,,,,,,
1980.23,0.00471,155.95,,,,,,,
1980.28,0.00476,156.12,,,,,,,
1980.33,0.00481,156.18,,,,,,,
1980.37,0.00486,156.12,,,,,,,
1980.42,0.00491,156.01,,,,,,,
3961.35,0.00497,152.87,,,,,,,
3961.41,0.00502,151.93,,,,,,,
3961.6,0.00497,121.7,,,,,,,
3961.64,0.00492,113.16,,,,,,,
3961.68,0.00487,105.22,,,,,,,
3961.71,0.00482,98.01,,,,,,,
3961.72,0.00481,97.29,,,,,,,
3961.75,0.00477,90.9,,,,,,,
3961.8,0.00472,83.91,,,,,,,
3961.84,0.00467,77.57,,,,,,,
3961.89,0.00462,71.37,,,,,,,
3961.93,0.00457,65.45,,,,,,,
3961.98,0.00452,60.1,,,,,,,
3962.03,0.00447,54.51,,,,,,,
3962.08,0.00441,49.0,,,,,,,
3962.14,0.00436,43.04,,,,,,,
3962.2,0.00431,37.01,,,,,,,
3962.22,0.0043,35.28,,,,,,,
3962.25,0.00426,31.28,,,,,,,
3962.31,0.00421,25.68,,,,,,,
3962.35,0.00416,20.74,,,,,,,
3962.41,0.00411,15.49,,,,,,,
3962.46,0.00406,10.28,,,,,,,
3962.51,0.00401,5.65,,,,,,,
3962.56,0.00396,1.06,,,,,,,
3962.61,0.00391,-3.86,,,,,,,
3962.67,0.00386,-8.76,,,,,,,
3962.72,0.00382,-12.9,,,,,,,
3962.73,0.00381,-13.94,,,,,,,
3962.78,0.00376,-18.25,,,,,,,
3962.83,0.00371,-22.28,,,,,,,
3962.89,0.00366,-25.6,,,,,,,
3962.98,0.00361,-28.65,,,,,,,
3963.08,0.00356,-32.77,,,,,,,
3963.15,0.00351,-37.81,,,,,,,
3963.21,0.00346,-44.53,,,,,,,
3963.22,0.00345,-45.74,,,,,,,
3963.25,0.00341,-50.08,,,,,,,
3963.28,0.00336,-55.07,,,,,,,
3963.32,0.00331,-59.6,,,,,,,
3963.36,0.00326,-63.74,,,,,,,
3963.41,0.00321,-67.53,,,,,,,
3963.46,0.00316,-70.98,,,,,,,
3963.51,0.00311,-74.17,,,,,,,
3963.57,0.00306,-77.2,,,,,,,
3963.62,0.003,-80.13,,,,,,,
3963.67,0.00295,-82.93,,,,,,,
3963.72,0.00291,-85.46,,,,,,,
3963.72,0.0029,-85.88,,,,,,,
3963.78,0.00285,-88.89,,,,,,,
3963.83,0.0028,-91.67,,,,,,,
3963.88,0.00275,-95.1,,,,,,,
3963.92,0.0027,-99.25,,,,,,,
3963.96,0.00265,-103.4,,,,,,,
3964.0,0.0026,-107.3,,,,,,,
3964.03,0.00255,-111.2,,,,,,,
3964.07,0.0025,-114.8,,,,,,,
3964.1,0.00245,-118.1,,,,,,,
3964.14,0.0024,-121.3,,,,,,,
3964.17,0.00235,-124.0,,,,,,,
3964.21,0.0023,-126.6,,,,,,,
3964.22,0.00229,-127.0,,,,,,,
3964.25,0.00225,-128.8,,,,,,,
3964.29,0.00219,-130.7,,,,,,,
3964.33,0.00214,-132.2,,,,,,,
3964.37,0.00209,-133.5,,,,,,,
3964.42,0.00204,-134.5,,,,,,,
3964.46,0.00199,-135.3,,,,,,,
3964.51,0.00194,-136.1,,,,,,,
3964.56,0.00189,-136.8,,,,,,,
3964.61,0.00184,-137.4,,,,,,,
3964.65,0.00179,-137.9,,,,,,,
3964.7,0.00174,-138.4,,,,,,,
3964.72,0.00172,-138.5,,,,,,,
3964.75,0.00169,-138.7,,,,,,,
3964.8,0.00164,-139.0,,,,,,,
3964.85,0.00159,-139.3,,,,,,,
3964.9,0.00154,-139.5,,,,,,,
3964.95,0.00149,-139.9,,,,,,,
3965.0,0.00144,-140.3,,,,,,,
3965.05,0.00139,-140.8,,,,,,,
3965.1,0.00134,-141.2,,,,,,,
3965.15,0.00129,-141.7,,,,,,,
3965.21,0.00124,-142.4,,,,,,,
3965.22,0.00123,-142.5,,,,,,,
3965.26,0.00119,-143.0,,,,,,,
3965.31,0.00114,-143.5,,,,,,,
3965.36,0.00109,-144.1,,,,,,,
3965.41,0.00103,-144.8,,,,,,,
3965.46,0.00098,-145.5,,,,,,,
3965.52,0.00093,-146.4,,,,,,,
3965.57,0.00088,-147.3,,,,,,,
3965.61,0.00083,-148.2,,,,,,,
3965.66,0.00078,-149.0,,,,,,,
3965.71,0.00073,-149.6,,,,,,,
3965.72,0.00072,-149.7,,,,,,,
3965.75,0.00068,-150.2,,,,,,,
3965.8,0.00063,-150.6,,,,,,,
3965.85,0.00058,-150.9,,,,,,,
3965.9,0.00053,-151.1,,,,,,,
3965.94,0.00048,-151.2,,,,,,,
3965.99,0.00043,-151.1,,,,,,,
3966.04,0.00038,-151.1,,,,,,,
3966.09,0.00033,-150.9,,,,,,,
3966.15,0.00028,-150.7,,,,,,,
3966.2,0.00023,-150.7,,,,,,,
3966.22,0.0002,-150.6,,,,,,,
3966.25,0.00018,-150.6,,,,,,,
3966.3,0.00013,-150.6,,,,,,,
3966.36,7e-05,-150.7,,,,,,,
3966.41,2e-05,-151.0,,,,,,,
3966.46,-3e-05,-151.5,,,,,,,
3966.51,-8e-05,-152.1,,,,,,,
3966.56,-0.00013,-152.6,,,,,,,
3966.6,-0.00018,-153.0,,,,,,,
3966.64,-0.00023,-153.3,,,,,,,
3966.69,-0.00028,-153.2,,,,,,,
3966.72,-0.00031,-153.1,,,,,,,
3966.73,-0.00033,-153.0,,,,,,,
3966.78,-0.00038,-152.5,,,,,,,
3966.82,-0.00043,-151.9,,,,,,,
3966.87,-0.00048,-151.0,,,,,,,
3966.93,-0.00053,-149.8,,,,,,,
3966.98,-0.00058,-148.9,,,,,,,
3967.05,-0.00063,-148.2,,,,,,,
3967.11,-0.00068,-148.2,,,,,,,
3967.16,-0.00074,-148.5,,,,,,,
3967.22,-0.00079,-149.1,,,,,,,
3967.22,-0.00079,-149.1,,,,,,,
3967.27,-0.00084,-149.9,,,,,,,
3967.31,-0.00089,-150.7,,,,,,,
3967.36,-0.00094,-151.4,,,,,,,
3967.41,-0.00099,-152.1,,,,,,,
3967.46,-0.00104,-152.6,,,,,,,
3967.5,-0.00109,-153.0,,,,,,,
3967.55,-0.00114,-153.2,,,,,,,
3967.6,-0.00119,-153.4,,,,,,,
3967.65,-0.00124,-153.3,,,,,,,
3967.7,-0.00129,-153.3,,,,,,,
3967.72,-0.00131,-153.2,,,,,,,
3967.74,-0.00134,-153.2,,,,,,,
3967.79,-0.00139,-152.9,,,,,,,
3967.85,-0.00144,-152.7,,,,,,,
3967.9,-0.00149,-152.4,,,,,,,
3967.95,-0.00154,-152.2,,,,,,,
3968.01,-0.00159,-152.2,,,,,,,
3968.06,-0.00164,-152.5,,,,,,,
3968.11,-0.00169,-153.0,,,,,,,
3968.16,-0.00174,-153.5,,,,,,,
3968.21,-0.00179,-153.9,,,,,,,
3968.22,-0.0018,-154.0,,,,,,,
3968.26,-0.00184,-154.2,,,,,,,
3968.31,-0.0019,-154.4,,,,,,,
3968.36,-0.00195,-154.6,,,,,,,
3968.41,-0.002,-154.9,,,,,,,
3968.45,-0.00205,-155.0,,,,,,,
3968.5,-0.0021,-155.1,,,,,,,
3968.55,-0.00215,-155.1,,,,,,,
3968.6,-0.0022,-155.1,,,,,,,
3968.65,-0.00225,-155.1,,,,,,,
3968.7,-0.0023,-155.1,,,,,,,
3968.72,-0.00231,-155.0,,,,,,,
3968.75,-0.00235,-155.0,,,,,,,
3968.8,-0.0024,-155.0,,,,,,,
3968.86,-0.00245,-155.0,,,,,,,
3968.91,-0.0025,-155.0,,,,,,,
3968.96,-0.00255,-155.1,,,,,,,
3969.01,-0.0026,-155.2,,,,,,,
3969.06,-0.00265,-155.4,,,,,,,
3969.11,-0.0027,-155.5,,,,,,,
3969.16,-0.00275,-155.7,,,,,,,
3969.21,-0.0028,-155.9,,,,,,,
3969.22,-0.00281,-155.9,,,,,,,
3969.26,-0.00285,-156.1,,,,,,,
3969.31,-0.0029,-156.2,,,,,,,
3969.36,-0.00296,-156.3,,,,,,,
3969.41,-0.00301,-156.3,,,,,,,
3969.46,-0.00306,-156.4,,,,,,,
3969.51,-0.00311,-156.5,,,,,,,
3969.56,-0.00316,-156.7,,,,,,,
3969.61,-0.00321,-156.9,,,,,,,
3969.67,-0.00326,-157.1,,,,,,,
3969.72,-0.00331,-157.3,,,,,,,
3969.72,-0.00331,-157.4,,,,,,,
3969.77,-0.00336,-157.6,,,,,,,
3969.82,-0.00341,-158.0,,,,,,,
3969.87,-0.00346,-158.2,,,,,,,
3969.91,-0.00351,-158.4,,,,,,,
3969.96,-0.00356,-158.6,,,,,,,
3970.01,-0.00361,-158.7,,,,,,,
3970.06,-0.00366,-158.6,,,,,,,
3970.11,-0.00371,-158.5,,,,,,,
3970.16,-0.00376,-158.4,,,,,,,
3970.21,-0.00381,-158.3,,,,,,,
3970.22,-0.00382,-158.3,,,,,,,
3970.26,-0.00386,-158.2,,,,,,,
3970.31,-0.00391,-158.2,,,,,,,
3970.36,-0.00396,-158.1,,,,,,,
3970.42,-0.00401,-158.1,,,,,,,
3970.48,-0.00406,-158.2,,,,,,,
3970.53,-0.00411,-158.7,,,,,,,
3970.57,-0.00416,-159.1,,,,,,,
3970.62,-0.00422,-159.6,,,,,,,
3970.67,-0.00427,-159.8,,,,,,,
3970.72,-0.00431,-160.0,,,,,,,
3970.72,-0.00432,-160.0,,,,,,,
3970.77,-0.00437,-160.2,,,,,,,
3970.82,-0.00442,-160.4,,,,,,,
3970.86,-0.00447,-160.5,,,,,,,
3970.91,-0.00452,-160.5,,,,,,,
3970.96,-0.00457,-160.4,,,,,,,
3971.01,-0.00462,-160.4,,,,,,,
3971.06,-0.00467,-160.3,,,,,,,
3971.11,-0.00472,-160.2,,,,,,,
3971.16,-0.00477,-160.0,,,,,,,
3971.22,-0.00482,-160.0,,,,,,,
3971.22,-0.00482,-160.0,,,,,,,
3971.27,-0.00487,-160.1,,,,,,,
3971.32,-0.00492,-160.2,,,,,,,
3971.37,-0.00497,-160.3,,,,,,,
3971.42,-0.00502,-159.2,,,,,,,
3971.61,-0.00497,-127.8,,,,,,,
3971.65,-0.00492,-118.9,,,,,,,
3971.69,-0.00487,-111.0,,,,,,,
3971.72,-0.00483,-105.2,,,,,,,
3971.73,-0.00482,-103.3,,,,,,,
3971.76,-0.00477,-96.36,,,,,,,
3971.81,-0.00472,-89.34,,,,,,,
3971.85,-0.00467,-82.7,,,,,,,
3971.9,-0.00462,-76.01,,,,,,,
3971.95,-0.00457,-69.61,,,,,,,
3972.01,-0.00452,-63.03,,,,,,,
3972.06,-0.00447,-56.56,,,,,,,
3972.12,-0.00442,-50.08,,,,,,,
3972.17,-0.00436,-44.0,,,,,,,
3972.22,-0.00432,-38.52,,,,,,,
3972.22,-0.00431,-38.29,,,,,,,
3972.27,-0.00426,-32.57,,,,,,,
3972.32,-0.00421,-26.72,,,,,,,
3972.38,-0.00416,-20.83,,,,,,,
3972.43,-0.00411,-14.73,,,,,,,
3972.49,-0.00406,-9.03,,,,,,,
3972.54,-0.00401,-3.34,,,,,,,
3972.59,-0.00396,2.28,,,,,,,
3972.64,-0.00391,7.56,,,,,,,
3972.69,-0.00386,12.78,,,,,,,
3972.72,-0.00383,15.32,,,,,,,
3972.74,-0.00381,17.73,,,,,,,
3972.79,-0.00376,22.08,,,,,,,
3972.83,-0.00371,26.43,,,,,,,
3972.89,-0.00366,30.75,,,,,,,
3972.95,-0.00361,34.23,,,,,,,
3973.02,-0.00356,37.44,,,,,,,
3973.09,-0.0035,40.92,,,,,,,
3973.16,-0.00345,44.05,,,,,,,
3973.22,-0.00341,47.16,,,,,,,
3973.23,-0.0034,47.66,,,,,,,
3973.29,-0.00335,51.83,,,,,,,
3973.34,-0.0033,57.4,,,,,,,
3973.37,-0.00325,62.18,,,,,,,
3973.41,-0.0032,66.48,,,,,,,
3973.44,-0.00315,70.59,,,,,,,
3973.49,-0.0031,74.12,,,,,,,
3973.53,-0.00305,77.15,,,,,,,
3973.58,-0.003,79.78,,,,,,,
3973.64,-0.00295,82.45,,,,,,,
3973.7,-0.0029,85.13,,,,,,,
3973.72,-0.00288,86.08,,,,,,,
3973.76,-0.00285,87.99,,,,,,,
3973.81,-0.0028,91.15,,,,,,,
3973.87,-0.00275,94.57,,,,,,,
3973.93,-0.0027,98.16,,,,,,,
3973.98,-0.00265,101.82,,,,,,,
3974.03,-0.0026,105.43,,,,,,,
3974.08,-0.00255,108.77,,,,,,,
3974.13,-0.0025,112.5,,,,,,,
3974.18,-0.00244,116.4,,,,,,,
3974.22,-0.0024,120.24,,,,,,,
3974.22,-0.00239,120.42,,,,,,,
3974.26,-0.00234,124.18,,,,,,,
3974.29,-0.00229,127.75,,,,,,,
3974.33,-0.00224,130.93,,,,,,,
3974.36,-0.00219,133.73,,,,,,,
3974.4,-0.00214,136.22,,,,,,,
3974.43,-0.00209,138.51,,,,,,,
3974.47,-0.00204,140.57,,,,,,,
3974.52,-0.00199,142.41,,,,,,,
3974.56,-0.00194,143.83,,,,,,,
3974.6,-0.00189,145.12,,,,,,,
3974.64,-0.00184,146.19,,,,,,,
3974.68,-0.00179,146.89,,,,,,,
3974.72,-0.00173,147.37,,,,,,,
3974.72,-0.00173,147.39,,,,,,,
3974.75,-0.00168,147.51,,,,,,,
3974.8,-0.00163,147.17,,,,,,,
3974.84,-0.00158,146.52,,,,,,,
3974.89,-0.00153,145.77,,,,,,,
3974.95,-0.00148,144.98,,,,,,,
3975.01,-0.00143,144.63,,,,,,,
3975.06,-0.00138,144.75,,,,,,,
3975.11,-0.00133,145.01,,,,,,,
3975.16,-0.00128,145.3,,,,,,,
3975.2,-0.00123,145.53,,,,,,,
3975.22,-0.00122,145.56,,,,,,,
3975.25,-0.00118,145.69,,,,,,,
3975.3,-0.00113,145.71,,,,,,,
3975.35,-0.00108,145.58,,,,,,,
3975.4,-0.00103,145.4,,,,,,,
3975.45,-0.00098,145.21,,,,,,,
3975.5,-0.00093,145.1,,,,,,,
3975.55,-0.00087,145.0,,,,,,,
3975.6,-0.00082,144.98,,,,,,,
3975.65,-0.00077,144.88,,,,,,,
3975.7,-0.00072,144.83,,,,,,,
3975.72,-0.00071,144.83,,,,,,,
3975.75,-0.00067,144.86,,,,,,,
3975.8,-0.00062,145.01,,,,,,,
3975.86,-0.00057,145.24,,,,,,,
3975.91,-0.00052,145.56,,,,,,,
3975.96,-0.00047,145.96,,,,,,,
3976.02,-0.00042,146.43,,,,,,,
3976.07,-0.00037,146.95,,,,,,,
3976.12,-0.00032,147.62,,,,,,,
3976.17,-0.00027,148.28,,,,,,,
3976.21,-0.00022,148.88,,,,,,,
3976.22,-0.00022,148.88,,,,,,,
3976.26,-0.00017,149.42,,,,,,,
3976.31,-0.00012,149.65,,,,,,,
3976.35,-7e-05,149.8,,,,,,,
3976.39,-2e-05,149.71,,,,,,,
3976.44,3e-05,149.32,,,,,,,
3976.49,8e-05,148.56,,,,,,,
3976.54,0.00014,147.8,,,,,,,
3976.6,0.00019,147.19,,,,,,,
3976.65,0.00024,146.87,,,,,,,
3976.71,0.00029,146.72,,,,,,,
3976.72,0.0003,146.71,,,,,,,
3976.76,0.00034,146.85,,,,,,,
3976.82,0.00039,147.05,,,,,,,
3976.87,0.00044,147.41,,,,,,,
3976.92,0.00049,147.99,,,,,,,
3976.97,0.00054,148.59,,,,,,,
3977.02,0.00059,149.33,,,,,,,
3977.07,0.00064,149.86,,,,,,,
3977.12,0.00069,150.43,,,,,,,
3977.17,0.00074,150.91,,,,,,,
3977.22,0.00079,151.29,,,,,,,
3977.26,0.00084,151.51,,,,,,,
3977.31,0.00089,151.62,,,,,,,
3977.35,0.00095,151.45,,,,,,,
3977.4,0.001,151.19,,,,,,,
3977.45,0.00105,150.67,,,,,,,
3977.5,0.0011,150.05,,,,,,,
3977.55,0.00115,149.5,,,,,,,
3977.6,0.0012,148.94,,,,,,,
3977.66,0.00125,148.55,,,,,,,
3977.71,0.0013,148.38,,,,,,,
3977.72,0.0013,148.36,,,,,,,
3977.77,0.00135,148.51,,,,,,,
3977.82,0.0014,148.83,,,,,,,
3977.88,0.00145,149.34,,,,,,,
3977.93,0.0015,149.84,,,,,,,
3977.98,0.00155,150.56,,,,,,,
3978.03,0.0016,151.21,,,,,,,
3978.08,0.00165,151.77,,,,,,,
3978.12,0.0017,152.16,,,,,,,
3978.17,0.00175,152.35,,,,,,,
3978.22,0.0018,152.46,,,,,,,
3978.22,0.0018,152.46,,,,,,,
3978.27,0.00185,152.46,,,,,,,
3978.32,0.0019,152.54,,,,,,,
3978.37,0.00195,152.63,,,,,,,
3978.42,0.00201,152.71,,,,,,,
3978.47,0.00206,152.8,,,,,,,
3978.52,0.00211,152.88,,,,,,,
3978.57,0.00216,152.88,,,,,,,
3978.62,0.00221,152.81,,,,,,,
3978.67,0.00226,152.66,,,,,,,
3978.72,0.00231,152.58,,,,,,,
3978.77,0.00236,152.47,,,,,,,
3978.82,0.00241,152.47,,,,,,,
3978.87,0.00246,152.59,,,,,,,
3978.92,0.00251,152.7,,,,,,,
3978.97,0.00256,152.9,,,,,,,
3979.02,0.00261,152.95,,,,,,,
3979.07,0.00266,152.93,,,,,,,
3979.12,0.00271,152.95,,,,,,,
3979.17,0.00276,152.87,,,,,,,
3979.22,0.00281,152.71,,,,,,,
3979.22,0.00281,152.71,,,,,,,
3979.28,0.00286,152.72,,,,,,,
3979.33,0.00291,152.94,,,,,,,
3979.37,0.00296,153.16,,,,,,,
3979.42,0.00301,153.34,,,,,,,
3979.46,0.00307,153.34,,,,,,,
3979.51,0.00312,153.16,,,,,,,
3979.56,0.00317,152.83,,,,,,,
3979.62,0.00322,152.42,,,,,,,
3979.67,0.00327,152.2,,,,,,,
3979.72,0.0033,152.23,,,,,,,
3979.73,0.00332,152.26,,,,,,,
3979.78,0.00337,152.48,,,,,,,
3979.83,0.00342,152.71,,,,,,,
3979.88,0.00347,153.04,,,,,,,
3979.93,0.00352,153.29,,,,,,,
3979.98,0.00357,153.53,,,,,,,
3980.03,0.00362,153.75,,,,,,,
3980.08,0.00367,153.96,,,,,,,
3980.13,0.00372,154.2,,,,,,,
3980.18,0.00377,154.36,,,,,,,
3980.22,0.00381,154.46,,,,,,,
3980.23,0.00382,154.48,,,,,,,
3980.27,0.00388,154.5,,,,,,,
3980.32,0.00393,154.36,,,,,,,
3980.37,0.00398,153.98,,,,,,,
3980.42,0.00403,153.71,,,,,,,
3980.47,0.00408,153.48,,,,,,,
3980.52,0.00413,153.12,,,,,,,
3980.57,0.00418,152.69,,,,,,,
3980.63,0.00423,152.29,,,,,,,
3980.68,0.00428,152.2,,,,,,,
3980.72,0.00431,152.17,,,,,,,
3980.74,0.00433,152.24,,,,,,,
3980.78,0.00438,152.41,,,,,,,
3980.83,0.00443,152.56,,,,,,,
3980.88,0.00448,152.63,,,,,,,
3980.93,0.00453,152.65,,,,,,,
3980.98,0.00458,152.68,,,,,,,
3981.03,0.00463,152.62,,,,,,,
3981.08,0.00468,152.63,,,,,,,
3981.14,0.00473,152.68,,,,,,,
3981.19,0.00478,152.92,,,,,,,
3981.22,0.00482,153.06,,,,,,,
3981.24,0.00483,153.16,,,,,,,
3981.29,0.00489,153.36,,,,,,,
3981.34,0.00494,153.51,,,,,,,
9963.99,0.00496,149.67,,,,,,,
9964.04,0.00501,149.35,,,,,,,
9964.22,0.00499,123.53,,,,,,,
9964.24,0.00496,118.25,,,,,,,
9964.28,0.00491,110.5,,,,,,,
9964.31,0.00485,103.28,,,,,,,
9964.35,0.0048,96.25,,,,,,,
9964.39,0.00475,89.73,,,,,,,
9964.43,0.0047,83.56,,,,,,,
9964.48,0.00465,77.25,,,,,,,
9964.53,0.0046,71.22,,,,,,,
9964.58,0.00455,65.39,,,,,,,
9964.63,0.0045,59.57,,,,,,,
9964.68,0.00445,53.85,,,,,,,
9964.72,0.00442,50.28,,,,,,,
9964.74,0.0044,48.16,,,,,,,
9964.79,0.00435,42.88,,,,,,,
9964.84,0.0043,37.68,,,,,,,
9964.89,0.00425,32.49,,,,,,,
9964.95,0.0042,27.3,,,,,,,
9965.0,0.00415,22.15,,,,,,,
9965.06,0.0041,16.65,,,,,,,
9965.11,0.00405,11.27,,,,,,,
9965.16,0.004,6.32,,,,,,,
9965.21,0.00395,1.54,,,,,,,
9965.22,0.00394,1.34,,,,,,,
9965.27,0.00389,-3.39,,,,,,,
9965.32,0.00384,-7.89,,,,,,,
9965.37,0.00379,-12.52,,,,,,,
9965.42,0.00374,-16.99,,,,,,,
9965.48,0.00369,-20.87,,,,,,,
9965.54,0.00364,-24.13,,,,,,,
9965.62,0.00359,-26.77,,,,,,,
9965.71,0.00354,-29.67,,,,,,,
9965.72,0.00354,-30.02,,,,,,,
9965.79,0.00349,-33.75,,,,,,,
9965.84,0.00344,-39.13,,,,,,,
9965.88,0.00339,-44.32,,,,,,,
9965.92,0.00334,-49.19,,,,,,,
9965.96,0.00329,-53.56,,,,,,,
9966.0,0.00324,-57.56,,,,,,,
9966.04,0.00319,-61.07,,,,,,,
9966.09,0.00314,-64.1,,,,,,,
9966.14,0.00309,-66.93,,,,,,,
9966.2,0.00304,-69.71,,,,,,,
9966.22,0.00302,-70.59,,,,,,,
9966.26,0.00299,-72.48,,,,,,,
9966.31,0.00294,-75.13,,,,,,,
9966.36,0.00289,-77.72,,,,,,,
9966.42,0.00283,-80.55,,,,,,,
9966.47,0.00278,-83.55,,,,,,,
9966.53,0.00273,-86.58,,,,,,,
9966.58,0.00268,-90.33,,,,,,,
9966.62,0.00263,-94.41,,,,,,,
9966.66,0.00258,-98.3,,,,,,,
9966.69,0.00253,-102.0,,,,,,,
9966.72,0.00249,-104.7,,,,,,,
9966.72,0.00248,-105.5,,,,,,,
9966.76,0.00243,-108.6,,,,,,,
9966.79,0.00238,-111.5,,,,,,,
9966.82,0.00233,-114.1,,,,,,,
9966.86,0.00228,-116.5,,,,,,,
9966.89,0.00223,-118.5,,,,,,,
9966.93,0.00218,-120.0,,,,,,,
9966.97,0.00212,-121.2,,,,,,,
9967.01,0.00207,-122.1,,,,,,,
9967.06,0.00202,-122.7,,,,,,,
9967.11,0.00197,-123.3,,,,,,,
9967.16,0.00192,-123.7,,,,,,,
9967.21,0.00187,-124.2,,,,,,,
9967.22,0.00187,-124.2,,,,,,,
9967.26,0.00182,-124.8,,,,,,,
9967.31,0.00177,-125.6,,,,,,,
9967.37,0.00172,-126.3,,,,,,,
9967.42,0.00167,-127.3,,,,,,,
9967.47,0.00162,-128.2,,,,,,,
9967.53,0.00157,-129.4,,,,,,,
9967.58,0.00152,-130.7,,,,,,,
9967.63,0.00147,-132.2,,,,,,,
9967.68,0.00142,-133.6,,,,,,,
9967.72,0.00138,-134.5,,,,,,,
9967.73,0.00137,-135.0,,,,,,,
9967.78,0.00132,-136.2,,,,,,,
9967.82,0.00127,-137.2,,,,,,,
9967.87,0.00122,-138.1,,,,,,,
9967.91,0.00117,-138.9,,,,,,,
9967.96,0.00112,-139.5,,,,,,,
9968.01,0.00106,-140.0,,,,,,,
9968.06,0.00101,-140.5,,,,,,,
9968.1,0.00096,-140.8,,,,,,,
9968.15,0.00091,-141.0,,,,,,,
9968.2,0.00086,-141.1,,,,,,,
9968.22,0.00084,-141.1,,,,,,,
9968.25,0.00081,-141.1,,,,,,,
9968.3,0.00076,-140.9,,,,,,,
9968.34,0.00071,-140.7,,,,,,,
9968.39,0.00066,-140.5,,,,,,,
9968.45,0.00061,-140.3,,,,,,,
9968.5,0.00056,-140.2,,,,,,,
9968.55,0.00051,-140.3,,,,,,,
9968.6,0.00046,-140.4,,,,,,,
9968.65,0.00041,-140.5,,,,,,,
9968.7,0.00036,-140.5,,,,,,,
9968.72,0.00034,-140.6,,,,,,,
9968.75,0.00031,-140.6,,,,,,,
9968.8,0.00026,-140.8,,,,,,,
9968.86,0.00021,-140.9,,,,,,,
9968.91,0.00016,-141.2,,,,,,,
9968.96,0.00011,-141.5,,,,,,,
9969.01,6e-05,-141.9,,,,,,,
9969.06,1e-05,-142.3,,,,,,,
9969.11,-5e-05,-142.8,,,,,,,
9969.16,-0.0001,-143.2,,,,,,,
9969.21,-0.00015,-143.8,,,,,,,
9969.22,-0.00015,-143.9,,,,,,,
9969.26,-0.0002,-144.2,,,,,,,
9969.31,-0.00025,-144.7,,,,,,,
9969.36,-0.0003,-145.0,,,,,,,
9969.41,-0.00035,-145.2,,,,,,,
9969.46,-0.0004,-145.4,,,,,,,
9969.51,-0.00045,-145.6,,,,,,,
9969.56,-0.0005,-145.8,,,,,,,
9969.61,-0.00055,-146.0,,,,,,,
9969.66,-0.0006,-146.2,,,,,,,
9969.71,-0.00065,-146.5,,,,,,,
9969.72,-0.00066,-146.5,,,,,,,
9969.76,-0.0007,-146.7,,,,,,,
9969.81,-0.00075,-147.0,,,,,,,
9969.86,-0.0008,-147.2,,,,,,,
9969.91,-0.00085,-147.5,,,,,,,
9969.96,-0.0009,-147.8,,,,,,,
9970.01,-0.00096,-148.0,,,,,,,
9970.06,-0.00101,-148.2,,,,,,,
9970.11,-0.00106,-148.3,,,,,,,
9970.15,-0.00111,-148.2,,,,,,,
9970.2,-0.00116,-148.1,,,,,,,
9970.22,-0.00117,-148.1,,,,,,,
9970.25,-0.00121,-148.0,,,,,,,
9970.3,-0.00126,-147.8,,,,,,,
9970.35,-0.00131,-147.7,,,,,,,
9970.4,-0.00136,-147.5,,,,,,,
9970.45,-0.00141,-147.3,,,,,,,
9970.5,-0.00146,-147.2,,,,,,,
9970.55,-0.00151,-147.0,,,,,,,
9970.6,-0.00156,-146.8,,,,,,,
9970.65,-0.00161,-146.7,,,,,,,
9970.7,-0.00166,-146.7,,,,,,,
9970.72,-0.00168,-146.6,,,,,,,
9970.75,-0.00171,-146.6,,,,,,,
9970.81,-0.00176,-146.5,,,,,,,
9970.86,-0.00181,-146.5,,,,,,,
9970.91,-0.00186,-146.7,,,,,,,
9970.97,-0.00191,-147.0,,,,,,,
9971.02,-0.00196,-147.4,,,,,,,
9971.07,-0.00201,-147.8,,,,,,,
9971.11,-0.00206,-148.2,,,,,,,
9971.16,-0.00211,-148.6,,,,,,,
9971.22,-0.00216,-148.9,,,,,,,
9971.22,-0.00217,-148.9,,,,,,,
9971.27,-0.00222,-149.2,,,,,,,
9971.32,-0.00227,-149.6,,,,,,,
9971.36,-0.00232,-149.9,,,,,,,
9971.42,-0.00237,-150.2,,,,,,,
9971.47,-0.00242,-150.5,,,,,,,
9971.52,-0.00247,-150.7,,,,,,,
9971.56,-0.00252,-151.0,,,,,,,
9971.61,-0.00257,-151.1,,,,,,,
9971.66,-0.00262,-151.3,,,,,,,
9971.72,-0.00267,-151.4,,,,,,,
9971.72,-0.00267,-151.5,,,,,,,
9971.77,-0.00272,-151.7,,,,,,,
9971.82,-0.00277,-151.9,,,,,,,
9971.87,-0.00282,-152.2,,,,,,,
9971.91,-0.00287,-152.4,,,,,,,
9971.96,-0.00292,-152.5,,,,,,,
9972.01,-0.00297,-152.5,,,,,,,
9972.06,-0.00302,-152.3,,,,,,,
9972.11,-0.00307,-152.2,,,,,,,
9972.16,-0.00312,-152.0,,,,,,,
9972.21,-0.00317,-151.8,,,,,,,
9972.22,-0.00318,-151.8,,,,,,,
9972.26,-0.00322,-151.7,,,,,,,
9972.31,-0.00327,-151.7,,,,,,,
9972.36,-0.00332,-151.7,,,,,,,
9972.41,-0.00338,-151.5,,,,,,,
9972.46,-0.00343,-151.3,,,,,,,
9972.5,-0.00348,-151.0,,,,,,,
9972.56,-0.00353,-150.7,,,,,,,
9972.61,-0.00358,-150.6,,,,,,,
9972.67,-0.00363,-150.6,,,,,,,
9972.72,-0.00367,-150.7,,,,,,,
9972.72,-0.00368,-150.8,,,,,,,
9972.77,-0.00373,-151.1,,,,,,,
9972.82,-0.00378,-151.4,,,,,,,
9972.87,-0.00383,-151.8,,,,,,,
9972.93,-0.00388,-152.3,,,,,,,
9972.98,-0.00393,-152.7,,,,,,,
9973.02,-0.00398,-153.1,,,,,,,
9973.07,-0.00403,-153.4,,,,,,,
9973.11,-0.00408,-153.5,,,,,,,
9973.16,-0.00413,-153.5,,,,,,,
9973.21,-0.00418,-153.2,,,,,,,
9973.22,-0.00419,-153.2,,,,,,,
9973.26,-0.00423,-153.0,,,,,,,
9973.31,-0.00428,-152.7,,,,,,,
9973.37,-0.00433,-152.4,,,,,,,
9973.42,-0.00438,-152.3,,,,,,,
9973.47,-0.00443,-152.3,,,,,,,
9973.52,-0.00448,-152.4,,,,,,,
9973.57,-0.00453,-152.7,,,,,,,
9973.62,-0.00459,-152.9,,,,,,,
9973.67,-0.00464,-153.2,,,,,,,
9973.72,-0.00468,-153.4,,,,,,,
9973.72,-0.00469,-153.4,,,,,,,
9973.78,-0.00474,-153.7,,,,,,,
9973.83,-0.00479,-154.0,,,,,,,
9973.88,-0.00484,-154.4,,,,,,,
9973.93,-0.00489,-154.7,,,,,,,
9973.98,-0.00494,-155.0,,,,,,,
9974.02,-0.00499,-155.0,,,,,,,
9974.08,-0.00504,-152.6,,,,,,,
9974.22,-0.005,-130.6,,,,,,,
9974.23,-0.00499,-127.8,,,,,,,
9974.27,-0.00494,-118.8,,,,,,,
9974.3,-0.00489,-111.2,,,,,,,
9974.33,-0.00484,-104.8,,,,,,,
9974.37,-0.00479,-97.95,,,,,,,
9974.41,-0.00474,-90.92,,,,,,,
9974.46,-0.00468,-83.88,,,,,,,
9974.51,-0.00463,-77.06,,,,,,,
9974.56,-0.00458,-70.96,,,,,,,
9974.62,-0.00453,-64.6,,,,,,,
9974.67,-0.00448,-58.77,,,,,,,
9974.72,-0.00444,-53.08,,,,,,,
9974.72,-0.00443,-52.77,,,,,,,
9974.77,-0.00438,-46.9,,,,,,,
9974.83,-0.00433,-40.96,,,,,,,
9974.88,-0.00428,-35.15,,,,,,,
9974.94,-0.00423,-29.04,,,,,,,
9974.99,-0.00418,-23.47,,,,,,,
9975.04,-0.00413,-17.84,,,,,,,
9975.1,-0.00408,-12.31,,,,,,,
9975.15,-0.00403,-6.49,,,,,,,
9975.2,-0.00398,-1.27,,,,,,,
9975.22,-0.00396,0.36,,,,,,,
9975.25,-0.00393,4.14,,,,,,,
9975.3,-0.00388,8.62,,,,,,,
9975.34,-0.00383,12.92,,,,,,,
9975.39,-0.00378,17.26,,,,,,,
9975.45,-0.00373,21.75,,,,,,,
9975.51,-0.00368,26.46,,,,,,,
9975.56,-0.00362,30.57,,,,,,,
9975.62,-0.00357,34.34,,,,,,,
9975.7,-0.00352,37.76,,,,,,,
9975.72,-0.00351,38.81,,,,,,,
9975.77,-0.00347,41.19,,,,,,,
9975.84,-0.00342,44.59,,,,,,,
9975.91,-0.00337,48.93,,,,,,,
9975.96,-0.00332,53.41,,,,,,,
9976.01,-0.00327,59.52,,,,,,,
9976.05,-0.00322,64.72,,,,,,,
9976.08,-0.00317,69.19,,,,,,,
9976.11,-0.00312,72.85,,,,,,,
9976.15,-0.00307,76.13,,,,,,,
9976.2,-0.00302,79.14,,,,,,,
9976.22,-0.003,80.25,,,,,,,
9976.25,-0.00297,81.69,,,,,,,
9976.31,-0.00292,84.37,,,,,,,
9976.37,-0.00287,86.82,,,,,,,
9976.42,-0.00281,89.32,,,,,,,
9976.47,-0.00276,91.88,,,,,,,
9976.52,-0.00271,94.59,,,,,,,
9976.58,-0.00266,97.22,,,,,,,
9976.63,-0.00261,99.8,,,,,,,
9976.68,-0.00256,102.42,,,,,,,
9976.72,-0.00252,104.51,,,,,,,
9976.73,-0.00251,105.1,,,,,,,
9976.78,-0.00246,108.14,,,,,,,
9976.82,-0.00241,111.4,,,,,,,
9976.86,-0.00236,114.58,,,,,,,
9976.9,-0.00231,117.64,,,,,,,
9976.93,-0.00226,120.42,,,,,,,
9976.96,-0.00221,122.92,,,,,,,
9977.0,-0.00216,125.11,,,,,,,
9977.04,-0.00211,127.22,,,,,,,
9977.07,-0.00206,128.82,,,,,,,
9977.11,-0.00201,130.22,,,,,,,
9977.15,-0.00196,131.32,,,,,,,
9977.2,-0.00191,132.23,,,,,,,
9977.22,-0.00188,132.56,,,,,,,
9977.24,-0.00185,132.94,,,,,,,
9977.29,-0.0018,133.49,,,,,,,
9977.33,-0.00175,133.92,,,,,,,
9977.37,-0.0017,134.12,,,,,,,
9977.43,-0.00165,134.23,,,,,,,
9977.48,-0.0016,134.42,,,,,,,
9977.53,-0.00155,134.73,,,,,,,
9977.58,-0.0015,135.11,,,,,,,
9977.63,-0.00145,135.6,,,,,,,
9977.68,-0.0014,136.03,,,,,,,
9977.72,-0.00136,136.41,,,,,,,
9977.72,-0.00135,136.47,,,,,,,
9977.77,-0.0013,136.86,,,,,,,
9977.82,-0.00125,137.12,,,,,,,
9977.87,-0.0012,137.47,,,,,,,
9977.92,-0.00115,137.84,,,,,,,
9977.97,-0.0011,138.16,,,,,,,
9978.02,-0.00105,138.42,,,,,,,
9978.07,-0.001,138.48,,,,,,,
9978.11,-0.00094,138.56,,,,,,,
9978.16,-0.00089,138.53,,,,,,,
9978.21,-0.00084,138.25,,,,,,,
9978.22,-0.00084,138.2,,,,,,,
9978.26,-0.00079,137.97,,,,,,,
9978.32,-0.00074,137.96,,,,,,,
9978.38,-0.00069,138.17,,,,,,,
9978.43,-0.00064,138.62,,,,,,,
9978.48,-0.00059,139.24,,,,,,,
9978.52,-0.00054,139.81,,,,,,,
9978.57,-0.00049,140.25,,,,,,,
9978.62,-0.00044,140.52,,,,,,,
9978.67,-0.00039,140.68,,,,,,,
9978.72,-0.00035,140.8,,,,,,,
9978.72,-0.00034,140.83,,,,,,,
9978.77,-0.00029,141.09,,,,,,,
9978.82,-0.00024,141.28,,,,,,,
9978.87,-0.00019,141.44,,,,,,,
9978.92,-0.00014,141.66,,,,,,,
9978.97,-9e-05,141.91,,,,,,,
9979.02,-4e-05,142.21,,,,,,,
9979.07,1e-05,142.47,,,,,,,
9979.12,6e-05,142.61,,,,,,,
9979.17,0.00011,142.61,,,,,,,
9979.22,0.00016,142.62,,,,,,,
9979.22,0.00016,142.62,,,,,,,
9979.27,0.00021,142.64,,,,,,,
9979.32,0.00026,142.64,,,,,,,
9979.37,0.00032,142.67,,,,,,,
9979.42,0.00037,142.76,,,,,,,
9979.47,0.00042,142.84,,,,,,,
9979.52,0.00047,143.05,,,,,,,
9979.57,0.00052,143.15,,,,,,,
9979.62,0.00057,143.26,,,,,,,
9979.67,0.00062,143.38,,,,,,,
9979.72,0.00066,143.52,,,,,,,
9979.73,0.00067,143.59,,,,,,,
9979.78,0.00072,143.88,,,,,,,
9979.82,0.00077,144.16,,,,,,,
9979.87,0.00082,144.28,,,,,,,
9979.92,0.00087,144.44,,,,,,,
9979.97,0.00092,144.57,,,,,,,
9980.02,0.00097,144.71,,,,,,,
9980.07,0.00102,144.78,,,,,,,
9980.12,0.00107,144.78,,,,,,,
9980.17,0.00112,144.67,,,,,,,
9980.22,0.00117,144.45,,,,,,,
9980.22,0.00117,144.43,,,,,,,
9980.27,0.00122,144.21,,,,,,,
9980.32,0.00127,144.0,,,,,,,
9980.37,0.00132,143.94,,,,,,,
9980.42,0.00137,143.99,,,,,,,
9980.48,0.00143,144.04,,,,,,,
9980.53,0.00148,144.22,,,,,,,
9980.58,0.00153,144.49,,,,,,,
9980.63,0.00158,144.68,,,,,,,
9980.68,0.00163,144.83,,,,,,,
9980.72,0.00166,144.95,,,,,,,
9980.73,0.00168,144.99,,,,,,,
9980.79,0.00173,145.31,,,,,,,
9980.84,0.00178,145.81,,,,,,,
9980.89,0.00183,146.36,,,,,,,
9980.94,0.00188,146.81,,,,,,,
9980.98,0.00193,147.15,,,,,,,
9981.03,0.00198,147.42,,,,,,,
9981.07,0.00203,147.52,,,,,,,
9981.12,0.00208,147.38,,,,,,,
9981.18,0.00213,147.32,,,,,,,
9981.22,0.00217,147.29,,,,,,,
9981.23,0.00218,147.3,,,,,,,
9981.27,0.00223,147.28,,,,,,,
9981.33,0.00228,147.17,,,,,,,
9981.38,0.00233,147.02,,,,,,,
9981.43,0.00239,146.99,,,,,,,
9981.48,0.00244,146.92,,,,,,,
9981.53,0.00249,146.84,,,,,,,
9981.58,0.00254,146.87,,,,,,,
9981.63,0.00259,146.97,,,,,,,
9981.68,0.00264,147.13,,,,,,,
9981.72,0.00267,147.21,,,,,,,
9981.73,0.00269,147.23,,,,,,,
9981.78,0.00274,147.21,,,,,,,
9981.83,0.00279,147.09,,,,,,,
9981.89,0.00284,147.03,,,,,,,
9981.94,0.00289,147.16,,,,,,,
9981.99,0.00294,147.4,,,,,,,
9982.04,0.00299,147.66,,,,,,,
9982.08,0.00304,147.83,,,,,,,
9982.13,0.00309,147.87,,,,,,,
9982.17,0.00314,147.71,,,,,,,
9982.22,0.00318,147.53,,,,,,,
9982.22,0.00319,147.48,,,,,,,
9982.28,0.00324,147.11,,,,,,,
9982.33,0.00329,146.92,,,,,,,
9982.38,0.00334,146.59,,,,,,,
9982.43,0.00339,146.45,,,,,,,
9982.49,0.00345,146.41,,,,,,,
9982.54,0.0035,146.52,,,,,,,
9982.59,0.00355,146.65,,,,,,,
9982.64,0.0036,146.79,,,,,,,
9982.69,0.00365,147.01,,,,,,,
9982.72,0.00367,147.09,,,,,,,
9982.74,0.0037,147.17,,,,,,,
9982.79,0.00375,147.39,,,,,,,
9982.84,0.0038,147.52,,,,,,,
9982.89,0.00385,147.59,,,,,,,
9982.94,0.0039,147.72,,,,,,,
9983.0,0.00395,147.87,,,,,,,
9983.05,0.004,148.19,,,,,,,
9983.1,0.00405,148.6,,,,,,,
9983.15,0.0041,149.06,,,,,,,
9983.2,0.00415,149.64,,,,,,,
9983.22,0.00417,149.82,,,,,,,
9983.25,0.0042,150.05,,,,,,,
9983.29,0.00425,150.41,,,,,,,
9983.34,0.0043,150.57,,,,,,,
9983.39,0.00435,150.73,,,,,,,
9983.44,0.0044,150.76,,,,,,,
9983.5,0.00445,150.72,,,,,,,
9983.55,0.0045,150.86,,,,,,,
9983.59,0.00456,150.89,,,,,,,
9983.64,0.00461,150.92,,,,,,,
9983.68,0.00466,150.71,,,,,,,
9983.72,0.00469,150.48,,,,,,,
9983.73,0.00471,150.32,,,,,,,
9983.79,0.00476,149.91,,,,,,,
9983.84,0.00481,149.6,,,,,,,
9983.89,0.00486,149.41,,,,,,,
9983.94,0.00491,149.38,,,,,,,
16987.08,0.00497,123.6,,,,,,,
16987.13,0.00502,123.1,,,,,,,
16987.22,0.00506,114.78,,,,,,,
16987.3,0.00497,99.49,,,,,,,
16987.33,0.00492,93.33,,,,,,,
16987.36,0.00487,87.47,,,,,,,
16987.4,0.00482,81.96,,,,,,,
16987.43,0.00477,76.83,,,,,,,
16987.47,0.00472,72.2,,,,,,,
16987.51,0.00467,67.52,,,,,,,
16987.56,0.00462,62.69,,,,,,,
16987.62,0.00457,57.85,,,,,,,
16987.67,0.00452,52.87,,,,,,,
16987.72,0.00448,49.24,,,,,,,
16987.73,0.00447,48.1,,,,,,,
16987.78,0.00442,43.52,,,,,,,
16987.83,0.00437,39.04,,,,,,,
16987.88,0.00432,34.9,,,,,,,
16987.93,0.00427,30.8,,,,,,,
16987.98,0.00422,26.98,,,,,,,
16988.03,0.00416,23.16,,,,,,,
16988.08,0.00411,19.37,,,,,,,
16988.13,0.00406,15.68,,,,,,,
16988.18,0.00401,12.33,,,,,,,
16988.22,0.00398,9.95,,,,,,,
16988.23,0.00396,8.73,,,,,,,
16988.28,0.00391,5.51,,,,,,,
16988.34,0.00386,2.23,,,,,,,
16988.39,0.00381,-1.09,,,,,,,
16988.44,0.00376,-4.27,,,,,,,
16988.49,0.00371,-7.26,,,,,,,
16988.54,0.00366,-10.36,,,,,,,
16988.6,0.00361,-13.57,,,,,,,
16988.66,0.00356,-16.15,,,,,,,
16988.72,0.00351,-18.48,,,,,,,
16988.72,0.00351,-18.65,,,,,,,
16988.79,0.00346,-20.51,,,,,,,
16988.88,0.00341,-22.59,,,,,,,
16988.95,0.00336,-25.93,,,,,,,
16989.01,0.00331,-29.11,,,,,,,
16989.07,0.00326,-32.48,,,,,,,
16989.11,0.00321,-36.7,,,,,,,
16989.15,0.00315,-40.47,,,,,,,
16989.18,0.0031,-43.7,,,,,,,
16989.22,0.00305,-46.43,,,,,,,
16989.22,0.00305,-46.69,,,,,,,
16989.25,0.003,-48.9,,,,,,,
16989.3,0.00295,-51.17,,,,,,,
16989.35,0.0029,-52.93,,,,,,,
16989.4,0.00285,-54.59,,,,,,,
16989.47,0.0028,-56.37,,,,,,,
16989.54,0.00275,-58.84,,,,,,,
16989.59,0.0027,-61.34,,,,,,,
16989.64,0.00265,-63.88,,,,,,,
16989.7,0.0026,-66.47,,,,,,,
16989.72,0.00258,-67.43,,,,,,,
16989.75,0.00255,-69.0,,,,,,,
16989.79,0.0025,-71.27,,,,,,,
16989.84,0.00245,-73.51,,,,,,,
16989.89,0.0024,-76.0,,,,,,,
16989.93,0.00235,-78.8,,,,,,,
16989.96,0.0023,-81.47,,,,,,,
16990.0,0.00225,-83.9,,,,,,,
16990.03,0.00219,-86.12,,,,,,,
16990.06,0.00214,-88.03,,,,,,,
16990.09,0.00209,-89.65,,,,,,,
16990.13,0.00204,-91.03,,,,,,,
16990.17,0.00199,-92.02,,,,,,,
16990.21,0.00194,-92.86,,,,,,,
16990.22,0.00193,-92.94,,,,,,,
16990.26,0.00189,-93.3,,,,,,,
16990.31,0.00184,-93.75,,,,,,,
16990.36,0.00179,-94.24,,,,,,,
16990.41,0.00174,-94.8,,,,,,,
16990.46,0.00169,-95.43,,,,,,,
16990.51,0.00164,-96.08,,,,,,,
16990.56,0.00159,-96.7,,,,,,,
16990.61,0.00154,-97.24,,,,,,,
16990.66,0.00149,-97.81,,,,,,,
16990.71,0.00144,-98.43,,,,,,,
16990.72,0.00143,-98.51,,,,,,,
16990.76,0.00139,-98.98,,,,,,,
16990.81,0.00133,-99.61,,,,,,,
16990.86,0.00128,-100.3,,,,,,,
16990.92,0.00123,-101.0,,,,,,,
16990.97,0.00118,-101.8,,,,,,,
16991.02,0.00113,-102.6,,,,,,,
16991.07,0.00108,-103.5,,,,,,,
16991.11,0.00103,-104.3,,,,,,,
16991.16,0.00098,-104.9,,,,,,,
16991.21,0.00093,-105.4,,,,,,,
16991.22,0.00092,-105.5,,,,,,,
16991.25,0.00088,-105.8,,,,,,,
16991.3,0.00083,-106.2,,,,,,,
16991.36,0.00078,-106.5,,,,,,,
16991.4,0.00073,-106.8,,,,,,,
16991.45,0.00068,-107.2,,,,,,,
16991.5,0.00063,-107.4,,,,,,,
16991.55,0.00058,-107.7,,,,,,,
16991.6,0.00053,-107.9,,,,,,,
16991.65,0.00048,-108.1,,,,,,,
16991.7,0.00043,-108.4,,,,,,,
16991.72,0.00041,-108.4,,,,,,,
16991.76,0.00038,-108.6,,,,,,,
16991.81,0.00033,-109.0,,,,,,,
16991.86,0.00028,-109.4,,,,,,,
16991.91,0.00023,-109.9,,,,,,,
16991.97,0.00018,-110.6,,,,,,,
16992.01,0.00013,-111.2,,,,,,,
16992.06,7e-05,-111.7,,,,,,,
16992.11,2e-05,-112.1,,,,,,,
16992.16,-3e-05,-112.5,,,,,,,
16992.21,-8e-05,-112.6,,,,,,,
16992.22,-9e-05,-112.7,,,,,,,
16992.25,-0.00013,-112.9,,,,,,,
16992.3,-0.00018,-113.0,,,,,,,
16992.35,-0.00023,-113.1,,,,,,,
16992.41,-0.00028,-113.1,,,,,,,
16992.45,-0.00033,-113.2,,,,,,,
16992.5,-0.00038,-113.3,,,,,,,
16992.55,-0.00043,-113.3,,,,,,,
16992.6,-0.00048,-113.2,,,,,,,
16992.66,-0.00053,-113.1,,,,,,,
16992.71,-0.00058,-113.2,,,,,,,
16992.72,-0.00059,-113.2,,,,,,,
16992.76,-0.00063,-113.5,,,,,,,
16992.82,-0.00068,-113.9,,,,,,,
16992.86,-0.00073,-114.3,,,,,,,
16992.91,-0.00078,-114.7,,,,,,,
16992.96,-0.00083,-115.0,,,,,,,
16993.01,-0.00089,-115.3,,,,,,,
16993.06,-0.00094,-115.5,,,,,,,
16993.11,-0.00099,-115.8,,,,,,,
16993.16,-0.00104,-116.1,,,,,,,
16993.21,-0.00109,-116.3,,,,,,,
16993.22,-0.00109,-116.3,,,,,,,
16993.26,-0.00114,-116.5,,,,,,,
16993.31,-0.00119,-116.7,,,,,,,
16993.36,-0.00124,-116.9,,,,,,,
16993.41,-0.00129,-116.9,,,,,,,
16993.46,-0.00134,-116.9,,,,,,,
16993.51,-0.00139,-116.9,,,,,,,
16993.56,-0.00144,-117.0,,,,,,,
16993.62,-0.00149,-117.1,,,,,,,
16993.67,-0.00154,-117.3,,,,,,,
16993.72,-0.00159,-117.6,,,,,,,
16993.72,-0.00159,-117.6,,,,,,,
16993.77,-0.00164,-117.9,,,,,,,
16993.82,-0.00169,-118.1,,,,,,,
16993.86,-0.00175,-118.3,,,,,,,
16993.91,-0.0018,-118.3,,,,,,,
16993.96,-0.00185,-118.3,,,,,,,
16994.01,-0.0019,-118.2,,,,,,,
16994.06,-0.00195,-118.3,,,,,,,
16994.12,-0.002,-118.3,,,,,,,
16994.17,-0.00205,-118.6,,,,,,,
16994.22,-0.00209,-118.8,,,,,,,
16994.23,-0.0021,-118.9,,,,,,,
16994.27,-0.00215,-119.3,,,,,,,
16994.32,-0.0022,-119.6,,,,,,,
16994.37,-0.00225,-119.8,,,,,,,
16994.42,-0.0023,-120.1,,,,,,,
16994.47,-0.00235,-120.4,,,,,,,
16994.52,-0.0024,-120.6,,,,,,,
16994.57,-0.00245,-120.8,,,,,,,
16994.62,-0.0025,-120.9,,,,,,,
16994.67,-0.00255,-121.0,,,,,,,
16994.72,-0.0026,-121.2,,,,,,,
16994.72,-0.0026,-121.2,,,,,,,
16994.77,-0.00265,-121.2,,,,,,,
16994.82,-0.0027,-121.3,,,,,,,
16994.87,-0.00275,-121.3,,,,,,,
16994.92,-0.0028,-121.3,,,,,,,
16994.98,-0.00285,-121.4,,,,,,,
16995.03,-0.0029,-121.6,,,,,,,
16995.08,-0.00295,-121.9,,,,,,,
16995.13,-0.00301,-122.2,,,,,,,
16995.18,-0.00306,-122.5,,,,,,,
16995.22,-0.0031,-122.8,,,,,,,
16995.22,-0.00311,-122.8,,,,,,,
16995.27,-0.00316,-122.9,,,,,,,
16995.33,-0.00321,-123.0,,,,,,,
16995.38,-0.00326,-123.1,,,,,,,
16995.43,-0.00331,-123.4,,,,,,,
16995.48,-0.00336,-123.6,,,,,,,
16995.53,-0.00341,-123.9,,,,,,,
16995.58,-0.00346,-124.3,,,,,,,
16995.63,-0.00351,-124.7,,,,,,,
16995.68,-0.00356,-125.0,,,,,,,
16995.72,-0.00361,-125.2,,,,,,,
16995.72,-0.00361,-125.2,,,,,,,
16995.76,-0.00366,-125.2,,,,,,,
16995.82,-0.00371,-124.9,,,,,,,
16995.87,-0.00376,-124.6,,,,,,,
16995.93,-0.00381,-124.4,,,,,,,
16995.98,-0.00386,-124.4,,,,,,,
16996.03,-0.00391,-124.6,,,,,,,
16996.08,-0.00396,-124.9,,,,,,,
16996.13,-0.00401,-125.2,,,,,,,
16996.18,-0.00407,-125.5,,,,,,,
16996.22,-0.0041,-125.6,,,,,,,
16996.23,-0.00412,-125.8,,,,,,,
16996.28,-0.00417,-126.1,,,,,,,
16996.33,-0.00422,-126.3,,,,,,,
16996.39,-0.00427,-126.6,,,,,,,
16996.44,-0.00432,-127.0,,,,,,,
16996.5,-0.00437,-127.7,,,,,,,
16996.55,-0.00442,-128.4,,,,,,,
16996.6,-0.00447,-129.2,,,,,,,
16996.65,-0.00452,-130.1,,,,,,,
16996.7,-0.00457,-131.0,,,,,,,
16996.72,-0.00459,-131.2,,,,,,,
16996.75,-0.00462,-131.8,,,,,,,
16996.81,-0.00467,-132.7,,,,,,,
16996.86,-0.00472,-133.7,,,,,,,
16996.91,-0.00477,-134.7,,,,,,,
16996.97,-0.00482,-135.9,,,,,,,
16997.02,-0.00487,-137.0,,,,,,,
16997.07,-0.00492,-138.1,,,,,,,
16997.12,-0.00498,-138.9,,,,,,,
16997.19,-0.00503,-136.4,,,,,,,
16997.22,-0.00503,-133.3,,,,,,,
16997.32,-0.00497,-115.3,,,,,,,
16997.35,-0.00492,-107.8,,,,,,,
16997.38,-0.00487,-101.1,,,,,,,
16997.42,-0.00482,-94.58,,,,,,,
16997.45,-0.00477,-88.14,,,,,,,
16997.5,-0.00472,-82.03,,,,,,,
16997.54,-0.00467,-75.84,,,,,,,
16997.59,-0.00462,-69.77,,,,,,,
16997.64,-0.00457,-64.28,,,,,,,
16997.69,-0.00452,-58.99,,,,,,,
16997.72,-0.0045,-56.42,,,,,,,
16997.74,-0.00447,-53.74,,,,,,,
16997.79,-0.00442,-48.84,,,,,,,
16997.85,-0.00437,-43.85,,,,,,,
16997.9,-0.00432,-39.06,,,,,,,
16997.95,-0.00427,-34.64,,,,,,,
16998.0,-0.00422,-30.41,,,,,,,
16998.04,-0.00417,-26.52,,,,,,,
16998.09,-0.00412,-22.45,,,,,,,
16998.15,-0.00407,-18.03,,,,,,,
16998.21,-0.00401,-13.7,,,,,,,
16998.22,-0.004,-12.82,,,,,,,
16998.26,-0.00396,-9.35,,,,,,,
16998.31,-0.00391,-5.1,,,,,,,
16998.36,-0.00386,-1.07,,,,,,,
16998.41,-0.00381,2.91,,,,,,,
16998.46,-0.00376,6.65,,,,,,,
16998.51,-0.00371,10.42,,,,,,,
16998.56,-0.00366,14.0,,,,,,,
16998.61,-0.00361,17.65,,,,,,,
16998.66,-0.00356,21.07,,,,,,,
16998.72,-0.00351,24.37,,,,,,,
16998.72,-0.00351,24.48,,,,,,,
16998.77,-0.00346,27.48,,,,,,,
16998.84,-0.00341,30.27,,,,,,,
16998.91,-0.00336,32.73,,,,,,,
16998.99,-0.00331,35.5,,,,,,,
16999.06,-0.00326,38.53,,,,,,,
16999.11,-0.00321,41.47,,,,,,,
16999.17,-0.00316,44.82,,,,,,,
16999.22,-0.00311,47.65,,,,,,,
16999.22,-0.0031,47.95,,,,,,,
16999.27,-0.00305,52.19,,,,,,,
16999.3,-0.003,56.09,,,,,,,
16999.33,-0.00295,59.37,,,,,,,
16999.37,-0.0029,62.11,,,,,,,
16999.4,-0.00285,64.5,,,,,,,
16999.45,-0.0028,66.36,,,,,,,
16999.5,-0.00275,67.89,,,,,,,
16999.56,-0.0027,69.33,,,,,,,
16999.62,-0.00265,70.82,,,,,,,
16999.67,-0.0026,72.45,,,,,,,
16999.72,-0.00256,73.99,,,,,,,
16999.73,-0.00255,74.37,,,,,,,
16999.78,-0.0025,76.17,,,,,,,
16999.82,-0.00245,78.04,,,,,,,
16999.88,-0.0024,79.79,,,,,,,
16999.92,-0.00234,81.41,,,,,,,
16999.97,-0.00229,82.78,,,,,,,
17000.02,-0.00224,84.11,,,,,,,
17000.06,-0.00219,85.35,,,,,,,
17000.11,-0.00214,86.74,,,,,,,
17000.16,-0.00209,88.54,,,,,,,
17000.2,-0.00204,90.4,,,,,,,
17000.22,-0.00201,91.37,,,,,,,
17000.23,-0.00199,92.24,,,,,,,
17000.27,-0.00194,93.73,,,,,,,
17000.3,-0.00189,95.07,,,,,,,
17000.34,-0.00184,96.11,,,,,,,
17000.38,-0.00179,96.87,,,,,,,
17000.42,-0.00174,97.42,,,,,,,
17000.46,-0.00169,97.7,,,,,,,
17000.51,-0.00164,97.75,,,,,,,
17000.57,-0.00159,97.88,,,,,,,
17000.62,-0.00154,98.37,,,,,,,
17000.67,-0.00149,99.05,,,,,,,
17000.72,-0.00144,99.75,,,,,,,
17000.72,-0.00144,99.77,,,,,,,
17000.77,-0.00138,100.34,,,,,,,
17000.82,-0.00133,100.93,,,,,,,
17000.87,-0.00128,101.56,,,,,,,
17000.92,-0.00123,102.34,,,,,,,
17000.97,-0.00118,103.16,,,,,,,
17001.02,-0.00113,103.86,,,,,,,
17001.06,-0.00108,104.51,,,,,,,
17001.11,-0.00103,105.06,,,,,,,
17001.16,-0.00098,105.5,,,,,,,
17001.2,-0.00093,105.85,,,,,,,
17001.22,-0.00092,105.94,,,,,,,
17001.26,-0.00088,106.09,,,,,,,
17001.31,-0.00083,106.36,,,,,,,
17001.35,-0.00078,106.7,,,,,,,
17001.39,-0.00073,106.84,,,,,,,
17001.45,-0.00068,106.86,,,,,,,
17001.5,-0.00063,106.81,,,,,,,
17001.56,-0.00058,107.03,,,,,,,
17001.61,-0.00053,107.35,,,,,,,
17001.66,-0.00048,107.71,,,,,,,
17001.71,-0.00043,108.14,,,,,,,
17001.72,-0.00042,108.17,,,,,,,
17001.76,-0.00038,108.63,,,,,,,
17001.81,-0.00032,109.18,,,,,,,
17001.86,-0.00027,109.66,,,,,,,
17001.91,-0.00022,110.12,,,,,,,
17001.96,-0.00017,110.46,,,,,,,
17002.0,-0.00012,110.65,,,,,,,
17002.06,-7e-05,110.84,,,,,,,
17002.12,-2e-05,111.11,,,,,,,
17002.17,3e-05,111.52,,,,,,,
17002.22,8e-05,111.97,,,,,,,
17002.22,8e-05,112.02,,,,,,,
17002.26,0.00013,112.32,,,,,,,
17002.31,0.00018,112.54,,,,,,,
17002.36,0.00023,112.68,,,,,,,
17002.41,0.00028,112.75,,,,,,,
17002.46,0.00033,112.94,,,,,,,
17002.52,0.00038,113.13,,,,,,,
17002.56,0.00043,113.37,,,,,,,
17002.61,0.00048,113.61,,,,,,,
17002.65,0.00053,113.67,,,,,,,
17002.7,0.00059,113.54,,,,,,,
17002.72,0.00061,113.38,,,,,,,
17002.75,0.00064,113.12,,,,,,,
17002.81,0.00069,112.66,,,,,,,
17002.87,0.00074,112.56,,,,,,,
17002.93,0.00079,112.99,,,,,,,
17002.98,0.00084,113.66,,,,,,,
17003.02,0.00089,114.39,,,,,,,
17003.07,0.00094,115.0,,,,,,,
17003.11,0.00099,115.32,,,,,,,
17003.16,0.00104,115.47,,,,,,,
17003.21,0.00109,115.44,,,,,,,
17003.22,0.0011,115.44,,,,,,,
17003.26,0.00114,115.44,,,,,,,
17003.31,0.00119,115.34,,,,,,,
17003.37,0.00124,115.23,,,,,,,
17003.42,0.00129,115.33,,,,,,,
17003.47,0.00134,115.54,,,,,,,
17003.53,0.00139,115.84,,,,,,,
17003.58,0.00144,116.28,,,,,,,
17003.62,0.0015,116.63,,,,,,,
17003.67,0.00155,116.95,,,,,,,
17003.72,0.0016,117.11,,,,,,,
17003.72,0.0016,117.14,,,,,,,
17003.76,0.00165,117.16,,,,,,,
17003.81,0.0017,116.98,,,,,,,
17003.86,0.00175,116.68,,,,,,,
17003.91,0.0018,116.42,,,,,,,
17003.97,0.00185,116.14,,,,,,,
17004.02,0.0019,116.0,,,,,,,
17004.07,0.00195,116.1,,,,,,,
17004.13,0.002,116.34,,,,,,,
17004.18,0.00205,116.62,,,,,,,
17004.22,0.00209,116.91,,,,,,,
17004.23,0.0021,116.92,,,,,,,
17004.28,0.00215,117.25,,,,,,,
17004.33,0.0022,117.53,,,,,,,
17004.38,0.00225,117.91,,,,,,,
17004.43,0.0023,118.16,,,,,,,
17004.47,0.00235,118.41,,,,,,,
17004.52,0.0024,118.57,,,,,,,
17004.57,0.00245,118.51,,,,,,,
17004.62,0.0025,118.4,,,,,,,
17004.67,0.00256,118.37,,,,,,,
17004.72,0.0026,118.32,,,,,,,
17004.73,0.00261,118.29,,,,,,,
17004.78,0.00266,118.29,,,,,,,
17004.83,0.00271,118.34,,,,,,,
17004.88,0.00276,118.51,,,,,,,
17004.93,0.00281,118.65,,,,,,,
17004.98,0.00286,118.69,,,,,,,
17005.03,0.00291,118.89,,,,,,,
17005.08,0.00296,119.1,,,,,,,
17005.13,0.00301,119.3,,,,,,,
17005.17,0.00306,119.35,,,,,,,
17005.22,0.0031,119.34,,,,,,,
17005.23,0.00311,119.34,,,,,,,
17005.29,0.00316,119.33,,,,,,,
17005.33,0.00321,119.57,,,,,,,
17005.38,0.00326,119.7,,,,,,,
17005.43,0.00331,119.78,,,,,,,
17005.48,0.00336,119.85,,,,,,,
17005.53,0.00341,120.07,,,,,,,
17005.58,0.00346,120.29,,,,,,,
17005.63,0.00351,120.3,,,,,,,
17005.67,0.00356,120.26,,,,,,,
17005.72,0.00361,120.18,,,,,,,
17005.73,0.00362,120.17,,,,,,,
17005.78,0.00367,120.04,,,,,,,
17005.83,0.00372,119.96,,,,,,,
17005.89,0.00377,120.1,,,,,,,
17005.94,0.00382,120.44,,,,,,,
17005.99,0.00387,120.79,,,,,,,
17006.04,0.00392,121.1,,,,,,,
17006.09,0.00397,121.38,,,,,,,
17006.14,0.00402,121.6,,,,,,,
17006.19,0.00407,121.79,,,,,,,
17006.22,0.0041,121.84,,,,,,,
17006.24,0.00412,121.94,,,,,,,
17006.29,0.00417,122.1,,,,,,,
17006.34,0.00422,122.14,,,,,,,
17006.38,0.00427,122.15,,,,,,,
17006.44,0.00432,122.18,,,,,,,
17006.49,0.00437,122.24,,,,,,,
17006.54,0.00442,122.44,,,,,,,
17006.59,0.00447,122.62,,,,,,,
17006.64,0.00452,122.79,,,,,,,
17006.69,0.00457,122.95,,,,,,,
17006.72,0.0046,123.0,,,,,,,
17006.74,0.00463,123.07,,,,,,,
17006.79,0.00468,123.15,,,,,,,
17006.84,0.00473,123.23,,,,,,,
17006.89,0.00478,123.33,,,,,,,
17006.94,0.00483,123.39,,,,,,,
17006.99,0.00488,123.55,,,,,,,
17007.04,0.00493,123.6,,,,,,,
19968.4,0.005,86.35,,,,,,,
19968.45,0.00505,85.35,,,,,,,
19968.57,0.005,71.96,,,,,,,
19968.6,0.00494,67.32,,,,,,,
19968.63,0.00489,63.41,,,,,,,
19968.65,0.00484,59.85,,,,,,,
19968.68,0.00479,56.57,,,,,,,
19968.71,0.00474,53.51,,,,,,,
19968.72,0.00473,53.02,,,,,,,
19968.75,0.00469,50.6,,,,,,,
19968.8,0.00464,47.63,,,,,,,
19968.86,0.00459,44.46,,,,,,,
19968.93,0.00454,41.35,,,,,,,
19968.98,0.00449,38.04,,,,,,,
19969.03,0.00444,35.03,,,,,,,
19969.08,0.00439,32.06,,,,,,,
19969.13,0.00434,29.28,,,,,,,
19969.18,0.00429,26.51,,,,,,,
19969.22,0.00425,24.53,,,,,,,
19969.23,0.00424,23.99,,,,,,,
19969.28,0.00419,21.47,,,,,,,
19969.33,0.00414,19.0,,,,,,,
19969.38,0.00409,16.69,,,,,,,
19969.43,0.00404,14.37,,,,,,,
19969.48,0.00399,12.06,,,,,,,
19969.54,0.00394,9.62,,,,,,,
19969.59,0.00388,7.08,,,,,,,
19969.64,0.00383,4.61,,,,,,,
19969.7,0.00378,2.18,,,,,,,
19969.72,0.00376,1.12,,,,,,,
19969.74,0.00373,0.04,,,,,,,
19969.79,0.00368,-2.15,,,,,,,
19969.84,0.00363,-4.16,,,,,,,
19969.89,0.00358,-6.12,,,,,,,
19969.94,0.00353,-7.97,,,,,,,
19969.99,0.00348,-9.62,,,,,,,
19970.05,0.00343,-11.24,,,,,,,
19970.11,0.00338,-12.78,,,,,,,
19970.18,0.00333,-14.11,,,,,,,
19970.22,0.0033,-14.78,,,,,,,
19970.25,0.00328,-15.63,,,,,,,
19970.32,0.00323,-17.16,,,,,,,
19970.38,0.00318,-19.0,,,,,,,
19970.44,0.00313,-21.07,,,,,,,
19970.49,0.00308,-23.01,,,,,,,
19970.54,0.00303,-25.04,,,,,,,
19970.59,0.00298,-27.24,,,,,,,
19970.62,0.00293,-29.49,,,,,,,
19970.66,0.00287,-31.38,,,,,,,
19970.69,0.00282,-33.25,,,,,,,
19970.72,0.00279,-34.21,,,,,,,
19970.73,0.00277,-34.7,,,,,,,
19970.77,0.00272,-35.84,,,,,,,
19970.82,0.00267,-36.59,,,,,,,
19970.88,0.00262,-37.2,,,,,,,
19970.95,0.00257,-38.02,,,,,,,
19971.0,0.00252,-39.08,,,,,,,
19971.06,0.00247,-40.31,,,,,,,
19971.11,0.00242,-41.52,,,,,,,
19971.16,0.00237,-42.95,,,,,,,
19971.21,0.00232,-44.16,,,,,,,
19971.22,0.00231,-44.31,,,,,,,
19971.26,0.00227,-45.35,,,,,,,
19971.31,0.00222,-46.41,,,,,,,
19971.36,0.00217,-47.47,,,,,,,
19971.41,0.00212,-48.47,,,,,,,
19971.47,0.00207,-49.48,,,,,,,
19971.52,0.00201,-50.58,,,,,,,
19971.56,0.00196,-51.64,,,,,,,
19971.61,0.00191,-53.13,,,,,,,
19971.64,0.00186,-54.58,,,,,,,
19971.68,0.00181,-55.94,,,,,,,
19971.71,0.00176,-57.08,,,,,,,
19971.72,0.00175,-57.29,,,,,,,
19971.75,0.00171,-58.01,,,,,,,
19971.78,0.00166,-58.75,,,,,,,
19971.82,0.00161,-59.11,,,,,,,
19971.87,0.00156,-59.28,,,,,,,
19971.92,0.00151,-59.29,,,,,,,
19971.98,0.00146,-59.51,,,,,,,
19972.03,0.00141,-60.01,,,,,,,
19972.08,0.00136,-60.63,,,,,,,
19972.13,0.00131,-61.24,,,,,,,
19972.17,0.00126,-61.79,,,,,,,
19972.22,0.00121,-62.18,,,,,,,
19972.22,0.00121,-62.24,,,,,,,
19972.27,0.00116,-62.62,,,,,,,
19972.33,0.00111,-63.02,,,,,,,
19972.38,0.00105,-63.47,,,,,,,
19972.43,0.001,-64.02,,,,,,,
19972.48,0.00095,-64.54,,,,,,,
19972.53,0.0009,-65.01,,,,,,,
19972.57,0.00085,-65.46,,,,,,,
19972.62,0.0008,-65.9,,,,,,,
19972.67,0.00075,-66.26,,,,,,,
19972.72,0.00071,-66.52,,,,,,,
19972.72,0.0007,-66.53,,,,,,,
19972.77,0.00065,-66.73,,,,,,,
19972.82,0.0006,-66.96,,,,,,,
19972.88,0.00055,-67.15,,,,,,,
19972.93,0.0005,-67.5,,,,,,,
19972.98,0.00045,-68.04,,,,,,,
19973.03,0.0004,-68.58,,,,,,,
19973.07,0.00035,-69.08,,,,,,,
19973.12,0.0003,-69.42,,,,,,,
19973.17,0.00025,-69.73,,,,,,,
19973.22,0.0002,-69.84,,,,,,,
19973.22,0.0002,-69.85,,,,,,,
19973.28,0.00015,-70.0,,,,,,,
19973.34,0.0001,-70.35,,,,,,,
19973.4,4e-05,-70.94,,,,,,,
19973.45,-1e-05,-71.7,,,,,,,
19973.48,-6e-05,-72.17,,,,,,,
19973.52,-0.00011,-72.6,,,,,,,
19973.58,-0.00016,-72.77,,,,,,,
19973.64,-0.00021,-72.82,,,,,,,
19973.69,-0.00026,-73.15,,,,,,,
19973.72,-0.00028,-73.4,,,,,,,
19973.74,-0.00031,-73.61,,,,,,,
19973.79,-0.00036,-74.18,,,,,,,
19973.83,-0.00041,-74.52,,,,,,,
19973.87,-0.00046,-74.74,,,,,,,
19973.92,-0.00051,-74.69,,,,,,,
19973.98,-0.00056,-74.53,,,,,,,
19974.03,-0.00061,-74.38,,,,,,,
19974.08,-0.00066,-74.36,,,,,,,
19974.13,-0.00071,-74.45,,,,,,,
19974.19,-0.00076,-74.65,,,,,,,
19974.22,-0.00079,-74.8,,,,,,,
19974.24,-0.00081,-74.95,,,,,,,
19974.29,-0.00086,-75.35,,,,,,,
19974.34,-0.00092,-75.73,,,,,,,
19974.39,-0.00097,-76.06,,,,,,,
19974.43,-0.00102,-76.26,,,,,,,
19974.48,-0.00107,-76.31,,,,,,,
19974.52,-0.00112,-76.28,,,,,,,
19974.57,-0.00117,-76.14,,,,,,,
19974.63,-0.00122,-75.95,,,,,,,
19974.69,-0.00127,-75.96,,,,,,,
19974.72,-0.00129,-76.1,,,,,,,
19974.75,-0.00132,-76.36,,,,,,,
19974.79,-0.00137,-76.8,,,,,,,
19974.84,-0.00142,-77.24,,,,,,,
19974.88,-0.00147,-77.41,,,,,,,
19974.93,-0.00152,-77.53,,,,,,,
19974.98,-0.00157,-77.52,,,,,,,
19975.04,-0.00162,-77.48,,,,,,,
19975.09,-0.00167,-77.62,,,,,,,
19975.14,-0.00172,-77.77,,,,,,,
19975.2,-0.00177,-78.07,,,,,,,
19975.22,-0.00179,-78.18,,,,,,,
19975.25,-0.00182,-78.45,,,,,,,
19975.29,-0.00187,-78.81,,,,,,,
19975.34,-0.00192,-79.07,,,,,,,
19975.39,-0.00198,-79.23,,,,,,,
19975.44,-0.00203,-79.35,,,,,,,
19975.49,-0.00208,-79.35,,,,,,,
19975.54,-0.00213,-79.42,,,,,,,
19975.59,-0.00218,-79.49,,,,,,,
19975.64,-0.00223,-79.54,,,,,,,
19975.69,-0.00228,-79.62,,,,,,,
19975.72,-0.0023,-79.68,,,,,,,
19975.74,-0.00233,-79.72,,,,,,,
19975.8,-0.00238,-79.84,,,,,,,
19975.85,-0.00243,-80.04,,,,,,,
19975.9,-0.00248,-80.27,,,,,,,
19975.95,-0.00253,-80.54,,,,,,,
19976.0,-0.00258,-80.84,,,,,,,
19976.05,-0.00263,-81.18,,,,,,,
19976.1,-0.00268,-81.44,,,,,,,
19976.15,-0.00273,-81.64,,,,,,,
19976.2,-0.00278,-81.73,,,,,,,
19976.22,-0.00281,-81.74,,,,,,,
19976.25,-0.00283,-81.78,,,,,,,
19976.31,-0.00289,-81.94,,,,,,,
19976.36,-0.00294,-82.3,,,,,,,
19976.41,-0.00299,-82.69,,,,,,,
19976.46,-0.00304,-83.15,,,,,,,
19976.5,-0.00309,-83.46,,,,,,,
19976.55,-0.00314,-83.53,,,,,,,
19976.6,-0.00319,-83.51,,,,,,,
19976.64,-0.00324,-83.39,,,,,,,
19976.7,-0.00329,-83.19,,,,,,,
19976.72,-0.00331,-83.12,,,,,,,
19976.75,-0.00334,-83.01,,,,,,,
19976.81,-0.00339,-83.0,,,,,,,
19976.86,-0.00344,-83.07,,,,,,,
19976.91,-0.00349,-83.23,,,,,,,
19976.96,-0.00354,-83.43,,,,,,,
19977.01,-0.00359,-83.63,,,,,,,
19977.06,-0.00365,-83.83,,,,,,,
19977.11,-0.0037,-84.07,,,,,,,
19977.15,-0.00375,-84.18,,,,,,,
19977.21,-0.0038,-84.27,,,,,,,
19977.22,-0.0038,-84.28,,,,,,,
19977.26,-0.00385,-84.37,,,,,,,
19977.31,-0.0039,-84.63,,,,,,,
19977.37,-0.00395,-85.06,,,,,,,
19977.42,-0.004,-85.65,,,,,,,
19977.48,-0.00405,-86.45,,,,,,,
19977.54,-0.0041,-87.49,,,,,,,
19977.59,-0.00415,-88.54,,,,,,,
19977.64,-0.0042,-89.82,,,,,,,
19977.69,-0.00425,-91.12,,,,,,,
19977.72,-0.00427,-91.75,,,,,,,
19977.75,-0.0043,-92.48,,,,,,,
19977.8,-0.00435,-93.99,,,,,,,
19977.86,-0.0044,-95.71,,,,,,,
19977.92,-0.00445,-97.89,,,,,,,
19977.97,-0.0045,-100.0,,,,,,,
19978.03,-0.00455,-102.5,,,,,,,
19978.08,-0.0046,-105.2,,,,,,,
19978.13,-0.00465,-107.4,,,,,,,
19978.18,-0.0047,-109.7,,,,,,,
19978.22,-0.00474,-111.5,,,,,,,
19978.23,-0.00475,-112.1,,,,,,,
19978.28,-0.0048,-114.4,,,,,,,
19978.33,-0.00486,-116.7,,,,,,,
19978.38,-0.00491,-118.9,,,,,,,
19978.44,-0.00496,-120.6,,,,,,,
19978.67,-0.00491,-95.67,,,,,,,
19978.71,-0.00485,-88.07,,,,,,,
19978.72,-0.00484,-86.56,,,,,,,
19978.75,-0.0048,-80.53,,,,,,,
19978.8,-0.00475,-73.8,,,,,,,
19978.84,-0.0047,-67.41,,,,,,,
19978.89,-0.00465,-61.2,,,,,,,
19978.94,-0.0046,-55.17,,,,,,,
19978.98,-0.00455,-49.7,,,,,,,
19979.03,-0.0045,-44.48,,,,,,,
19979.08,-0.00445,-39.87,,,,,,,
19979.13,-0.0044,-35.62,,,,,,,
19979.17,-0.00435,-31.67,,,,,,,
19979.21,-0.0043,-28.32,,,,,,,
19979.22,-0.00429,-27.77,,,,,,,
19979.25,-0.00425,-25.14,,,,,,,
19979.3,-0.0042,-22.23,,,,,,,
19979.35,-0.00415,-19.21,,,,,,,
19979.4,-0.0041,-16.52,,,,,,,
19979.45,-0.00405,-13.69,,,,,,,
19979.5,-0.004,-10.96,,,,,,,
19979.55,-0.00395,-8.47,,,,,,,
19979.6,-0.00389,-5.99,,,,,,,
19979.65,-0.00384,-3.41,,,,,,,
19979.7,-0.00379,-0.77,,,,,,,
19979.72,-0.00378,-0.01,,,,,,,
19979.76,-0.00374,1.99,,,,,,,
19979.8,-0.00369,4.29,,,,,,,
19979.85,-0.00364,6.69,,,,,,,
19979.9,-0.00359,8.97,,,,,,,
19979.95,-0.00354,11.23,,,,,,,
19980.0,-0.00349,13.45,,,,,,,
19980.05,-0.00344,15.65,,,,,,,
19980.1,-0.00339,17.66,,,,,,,
19980.15,-0.00334,19.46,,,,,,,
19980.19,-0.00329,21.04,,,,,,,
19980.22,-0.00327,21.72,,,,,,,
19980.25,-0.00324,22.51,,,,,,,
19980.31,-0.00319,23.69,,,,,,,
19980.39,-0.00314,24.82,,,,,,,
19980.46,-0.00309,26.57,,,,,,,
19980.52,-0.00304,28.41,,,,,,,
19980.57,-0.00299,30.27,,,,,,,
19980.63,-0.00294,32.04,,,,,,,
19980.68,-0.00289,33.79,,,,,,,
19980.72,-0.00285,34.95,,,,,,,
19980.73,-0.00284,35.4,,,,,,,
19980.79,-0.00279,37.11,,,,,,,
19980.84,-0.00274,39.25,,,,,,,
19980.88,-0.00268,41.9,,,,,,,
19980.91,-0.00263,44.02,,,,,,,
19980.94,-0.00258,45.74,,,,,,,
19980.96,-0.00253,47.06,,,,,,,
19980.99,-0.00248,47.98,,,,,,,
19981.03,-0.00243,48.45,,,,,,,
19981.07,-0.00238,47.98,,,,,,,
19981.16,-0.00233,46.66,,,,,,,
19981.22,-0.0023,46.77,,,,,,,
19981.24,-0.00228,47.15,,,,,,,
19981.29,-0.00223,48.46,,,,,,,
19981.34,-0.00218,49.89,,,,,,,
19981.39,-0.00213,51.36,,,,,,,
19981.43,-0.00208,52.47,,,,,,,
19981.48,-0.00202,53.43,,,,,,,
19981.52,-0.00197,54.18,,,,,,,
19981.57,-0.00192,54.7,,,,,,,
19981.62,-0.00187,55.09,,,,,,,
19981.68,-0.00182,55.54,,,,,,,
19981.72,-0.00178,55.91,,,,,,,
19981.73,-0.00177,56.04,,,,,,,
19981.79,-0.00172,56.74,,,,,,,
19981.84,-0.00167,57.68,,,,,,,
19981.88,-0.00162,58.51,,,,,,,
19981.93,-0.00157,59.24,,,,,,,
19981.97,-0.00152,59.89,,,,,,,
19982.02,-0.00147,60.61,,,,,,,
19982.07,-0.00142,61.47,,,,,,,
19982.11,-0.00137,62.37,,,,,,,
19982.15,-0.00132,63.29,,,,,,,
19982.19,-0.00127,64.02,,,,,,,
19982.22,-0.00123,64.35,,,,,,,
19982.23,-0.00121,64.57,,,,,,,
19982.28,-0.00116,65.03,,,,,,,
19982.32,-0.00111,65.42,,,,,,,
19982.37,-0.00106,65.67,,,,,,,
19982.41,-0.00101,65.83,,,,,,,
19982.46,-0.00096,65.94,,,,,,,
19982.51,-0.00091,65.98,,,,,,,
19982.57,-0.00086,66.12,,,,,,,
19982.62,-0.00081,66.43,,,,,,,
19982.67,-0.00076,66.86,,,,,,,
19982.72,-0.00071,67.33,,,,,,,
19982.77,-0.00066,67.8,,,,,,,
19982.82,-0.00061,68.14,,,,,,,
19982.86,-0.00056,68.51,,,,,,,
19982.91,-0.00051,68.73,,,,,,,
19982.96,-0.00046,68.78,,,,,,,
19983.02,-0.0004,68.9,,,,,,,
19983.07,-0.00035,69.15,,,,,,,
19983.12,-0.0003,69.49,,,,,,,
19983.17,-0.00025,69.84,,,,,,,
19983.22,-0.0002,70.21,,,,,,,
19983.22,-0.0002,70.22,,,,,,,
19983.26,-0.00015,70.41,,,,,,,
19983.31,-0.0001,70.4,,,,,,,
19983.36,-5e-05,70.32,,,,,,,
19983.42,-0.0,70.24,,,,,,,
19983.48,5e-05,70.48,,,,,,,
19983.53,0.0001,70.91,,,,,,,
19983.58,0.00015,71.44,,,,,,,
19983.63,0.0002,71.86,,,,,,,
19983.68,0.00025,72.25,,,,,,,
19983.72,0.00029,72.5,,,,,,,
19983.73,0.0003,72.57,,,,,,,
19983.78,0.00035,72.88,,,,,,,
19983.83,0.0004,73.15,,,,,,,
19983.88,0.00045,73.37,,,,,,,
19983.92,0.0005,73.53,,,,,,,
19983.98,0.00056,73.66,,,,,,,
19984.03,0.00061,73.67,,,,,,,
19984.08,0.00066,73.76,,,,,,,
19984.13,0.00071,74.01,,,,,,,
19984.19,0.00076,74.37,,,,,,,
19984.22,0.00079,74.57,,,,,,,
19984.23,0.00081,74.75,,,,,,,
19984.28,0.00086,75.08,,,,,,,
19984.33,0.00091,75.29,,,,,,,
19984.37,0.00096,75.42,,,,,,,
19984.42,0.00101,75.37,,,,,,,
19984.48,0.00106,75.24,,,,,,,
19984.53,0.00111,75.1,,,,,,,
19984.58,0.00116,75.18,,,,,,,
19984.63,0.00121,75.24,,,,,,,
19984.68,0.00126,75.39,,,,,,,
19984.72,0.0013,75.48,,,,,,,
19984.73,0.00131,75.53,,,,,,,
19984.79,0.00136,75.74,,,,,,,
19984.84,0.00141,75.93,,,,,,,
19984.89,0.00147,76.18,,,,,,,
19984.94,0.00152,76.42,,,,,,,
19984.99,0.00157,76.58,,,,,,,
19985.04,0.00162,76.78,,,,,,,
19985.09,0.00167,76.94,,,,,,,
19985.14,0.00172,77.12,,,,,,,
19985.19,0.00177,77.31,,,,,,,
19985.22,0.0018,77.41,,,,,,,
19985.24,0.00182,77.49,,,,,,,
19985.29,0.00187,77.69,,,,,,,
19985.34,0.00192,77.83,,,,,,,
19985.39,0.00197,77.98,,,,,,,
19985.44,0.00202,78.15,,,,,,,
19985.49,0.00207,78.36,,,,,,,
19985.54,0.00212,78.57,,,,,,,
19985.59,0.00217,78.71,,,,,,,
19985.64,0.00222,78.72,,,,,,,
19985.69,0.00227,78.73,,,,,,,
19985.72,0.0023,78.77,,,,,,,
19985.75,0.00232,78.83,,,,,,,
19985.8,0.00237,79.09,,,,,,,
19985.84,0.00242,79.42,,,,,,,
19985.89,0.00247,79.65,,,,,,,
19985.94,0.00253,79.76,,,,,,,
19985.99,0.00258,79.87,,,,,,,
19986.05,0.00263,79.98,,,,,,,
19986.1,0.00268,80.19,,,,,,,
19986.15,0.00273,80.37,,,,,,,
19986.2,0.00278,80.58,,,,,,,
19986.22,0.0028,80.65,,,,,,,
19986.25,0.00283,80.77,,,,,,,
19986.3,0.00288,80.94,,,,,,,
19986.35,0.00293,81.16,,,,,,,
19986.39,0.00298,81.27,,,,,,,
19986.44,0.00303,81.3,,,,,,,
19986.49,0.00308,81.19,,,,,,,
19986.54,0.00313,81.08,,,,,,,
19986.6,0.00318,81.03,,,,,,,
19986.65,0.00323,81.04,,,,,,,
19986.7,0.00328,81.21,,,,,,,
19986.72,0.0033,81.24,,,,,,,
19986.75,0.00333,81.52,,,,,,,
19986.8,0.00338,81.84,,,,,,,
19986.85,0.00343,82.11,,,,,,,
19986.9,0.00348,82.34,,,,,,,
19986.94,0.00353,82.37,,,,,,,
19986.99,0.00359,82.3,,,,,,,
19987.04,0.00364,82.19,,,,,,,
19987.09,0.00369,82.02,,,,,,,
19987.14,0.00374,81.85,,,,,,,
19987.2,0.00379,81.68,,,,,,,
19987.22,0.00381,81.65,,,,,,,
19987.25,0.00384,81.59,,,,,,,
19987.31,0.00389,81.67,,,,,,,
19987.36,0.00394,81.9,,,,,,,
19987.41,0.00399,82.12,,,,,,,
19987.45,0.00404,82.32,,,,,,,
19987.5,0.00409,82.48,,,,,,,
19987.55,0.00414,82.53,,,,,,,
19987.6,0.00419,82.56,,,,,,,
19987.66,0.00424,82.64,,,,,,,
19987.72,0.00429,82.92,,,,,,,
19987.72,0.0043,82.95,,,,,,,
19987.77,0.00434,83.33,,,,,,,
19987.81,0.00439,83.69,,,,,,,
19987.87,0.00444,84.1,,,,,,,
19987.92,0.00449,84.58,,,,,,,
19987.96,0.00454,84.97,,,,,,,
19988.01,0.00459,85.24,,,,,,,
19988.06,0.00464,85.42,,,,,,,
19988.1,0.00469,85.46,,,,,,,
19988.16,0.00475,85.39,,,,,,,
19988.21,0.0048,85.34,,,,,,,
19988.22,0.0048,85.35,,,,,,,
19988.27,0.00485,85.43,,,,,,,
19988.32,0.0049,85.57,,,,,,,
19988.37,0.00495,85.91,,,,,,,
